#
# Results on Tuesday March 10 2015 15:21:34 UTC.
# USER AGENT: Mozilla/5.0 (Windows NT 6.1; WOW64) AppleWebKit/537.36 (KHTML, like Gecko) Chrome/40.0.2214.115 Safari/537.36 OPR/27.0.1689.76
# Design number was non-random = 1
#
# Columns below this comment are as follows:
# 1. Time results were received.
# 2. MD5 hash of participant's IP address.
# 3. Controller name.
# 4. Item number.
# 5. Element number.
# 6. Type.
# 7. Group.
# 8. Field name.
# 9. Field value.
1426000894,6ac4ad734ca8dae22f339f8e4adb39a4,Form,2,0,intro,NULL,consentanswer,drdlblbrD R,D L,B L,B R
1426000894,6ac4ad734ca8dae22f339f8e4adb39a4,Form,2,0,intro,NULL,_REACTION_TIME_,18664
1426000894,6ac4ad734ca8dae22f339f8e4adb39a4,Form,3,0,questionnaire,NULL,write_something,
1426000894,6ac4ad734ca8dae22f339f8e4adb39a4,Form,3,0,questionnaire,NULL,NatLang,eng
1426000894,6ac4ad734ca8dae22f339f8e4adb39a4,Form,3,0,questionnaire,NULL,disorder,disorderno
1426000894,6ac4ad734ca8dae22f339f8e4adb39a4,Form,3,0,questionnaire,NULL,_REACTION_TIME_,7036
1426000894,6ac4ad734ca8dae22f339f8e4adb39a4,Form,4,0,headphones,NULL,headphonebrand,Philips
1426000894,6ac4ad734ca8dae22f339f8e4adb39a4,Form,4,0,headphones,NULL,headphonemodel,SBC HS430
1426000894,6ac4ad734ca8dae22f339f8e4adb39a4,Form,4,0,headphones,NULL,headphoneyesno,headphoneyes
1426000894,6ac4ad734ca8dae22f339f8e4adb39a4,Form,4,0,headphones,NULL,_REACTION_TIME_,48929
# Columns below this comment are as follows:
# 1. Time results were received.
# 2. MD5 hash of participant's IP address.
# 3. Controller name.
# 4. Item number.
# 5. Element number.
# 6. Type.
# 7. Group.
# 8. Question (NULL if none).
# 9. Answer.
# 10. Whether or not answer was correct (NULL if N/A).
# 11. Time taken to answer.
1426000894,6ac4ad734ca8dae22f339f8e4adb39a4,Trial,23,0,pnt_bd_l_17,NULL,&nbsp;&nbsp;&nbsp;&nbsp;click on the sound,D L,NULL,3991
1426000894,6ac4ad734ca8dae22f339f8e4adb39a4,Trial,24,0,pnt_bd_r_1,NULL,&nbsp;&nbsp;&nbsp;&nbsp;click on the sound,B R,NULL,1534
1426000894,6ac4ad734ca8dae22f339f8e4adb39a4,Trial,25,0,pnt_bd_r_17,NULL,&nbsp;&nbsp;&nbsp;&nbsp;click on the sound,D R,NULL,2081
1426000894,6ac4ad734ca8dae22f339f8e4adb39a4,Trial,22,0,pnt_bd_l_1,NULL,&nbsp;&nbsp;&nbsp;&nbsp;click on the sound,B L,NULL,1245
1426000894,6ac4ad734ca8dae22f339f8e4adb39a4,Trial,28,0,pto_bd_r_1,NULL,&nbsp;&nbsp;&nbsp;&nbsp;click on the sound,B R,NULL,1339
1426000894,6ac4ad734ca8dae22f339f8e4adb39a4,Trial,26,0,pto_bd_l_1,NULL,&nbsp;&nbsp;&nbsp;&nbsp;click on the sound,B L,NULL,1014
1426000894,6ac4ad734ca8dae22f339f8e4adb39a4,Trial,29,0,pto_bd_r_17,NULL,&nbsp;&nbsp;&nbsp;&nbsp;click on the sound,D R,NULL,1051
1426000894,6ac4ad734ca8dae22f339f8e4adb39a4,Trial,27,0,pto_bd_l_17,NULL,&nbsp;&nbsp;&nbsp;&nbsp;click on the sound,D L,NULL,1281
1426000894,6ac4ad734ca8dae22f339f8e4adb39a4,Trial,43,0,t_bd_r_10,NULL,NULL,B R,NULL,1322
1426000894,6ac4ad734ca8dae22f339f8e4adb39a4,Trial,44,0,t_bd_r_14,NULL,NULL,D L,NULL,3107
1426000894,6ac4ad734ca8dae22f339f8e4adb39a4,Trial,40,0,t_bd_r_6,NULL,NULL,D L,NULL,1757
1426000894,6ac4ad734ca8dae22f339f8e4adb39a4,Trial,34,0,t_bd_l_8,NULL,NULL,D L,NULL,1403
1426000894,6ac4ad734ca8dae22f339f8e4adb39a4,Trial,45,0,t_bd_r_17,NULL,NULL,D R,NULL,1269
1426000894,6ac4ad734ca8dae22f339f8e4adb39a4,Trial,37,0,t_bd_l_17,NULL,NULL,D L,NULL,1107
1426000894,6ac4ad734ca8dae22f339f8e4adb39a4,Trial,36,0,t_bd_l_14,NULL,NULL,D L,NULL,2273
1426000894,6ac4ad734ca8dae22f339f8e4adb39a4,Trial,32,0,t_bd_l_6,NULL,NULL,B L,NULL,3099
1426000894,6ac4ad734ca8dae22f339f8e4adb39a4,Trial,33,0,t_bd_l_7,NULL,NULL,B L,NULL,1073
1426000894,6ac4ad734ca8dae22f339f8e4adb39a4,Trial,30,0,t_bd_l_1,NULL,NULL,B L,NULL,824
1426000894,6ac4ad734ca8dae22f339f8e4adb39a4,Trial,42,0,t_bd_r_8,NULL,NULL,B R,NULL,1196
1426000894,6ac4ad734ca8dae22f339f8e4adb39a4,Trial,35,0,t_bd_l_10,NULL,NULL,D L,NULL,1623
1426000894,6ac4ad734ca8dae22f339f8e4adb39a4,Trial,31,0,t_bd_l_4,NULL,NULL,D L,NULL,1174
1426000894,6ac4ad734ca8dae22f339f8e4adb39a4,Trial,39,0,t_bd_r_4,NULL,NULL,D R,NULL,1273
1426000894,6ac4ad734ca8dae22f339f8e4adb39a4,Trial,38,0,t_bd_r_1,NULL,NULL,B R,NULL,966
1426000894,6ac4ad734ca8dae22f339f8e4adb39a4,Trial,41,0,t_bd_r_7,NULL,NULL,D R,NULL,1467
1426000894,6ac4ad734ca8dae22f339f8e4adb39a4,Trial,33,0,t_bd_l_7,NULL,NULL,D L,NULL,1007
1426000894,6ac4ad734ca8dae22f339f8e4adb39a4,Trial,44,0,t_bd_r_14,NULL,NULL,D R,NULL,1303
1426000894,6ac4ad734ca8dae22f339f8e4adb39a4,Trial,39,0,t_bd_r_4,NULL,NULL,B R,NULL,1315
1426000894,6ac4ad734ca8dae22f339f8e4adb39a4,Trial,45,0,t_bd_r_17,NULL,NULL,D R,NULL,1161
1426000894,6ac4ad734ca8dae22f339f8e4adb39a4,Trial,40,0,t_bd_r_6,NULL,NULL,D R,NULL,798
1426000894,6ac4ad734ca8dae22f339f8e4adb39a4,Trial,37,0,t_bd_l_17,NULL,NULL,D L,NULL,1225
1426000894,6ac4ad734ca8dae22f339f8e4adb39a4,Trial,36,0,t_bd_l_14,NULL,NULL,D L,NULL,801
1426000894,6ac4ad734ca8dae22f339f8e4adb39a4,Trial,35,0,t_bd_l_10,NULL,NULL,D L,NULL,749
1426000894,6ac4ad734ca8dae22f339f8e4adb39a4,Trial,34,0,t_bd_l_8,NULL,NULL,D L,NULL,719
1426000894,6ac4ad734ca8dae22f339f8e4adb39a4,Trial,42,0,t_bd_r_8,NULL,NULL,D R,NULL,1266
1426000894,6ac4ad734ca8dae22f339f8e4adb39a4,Trial,41,0,t_bd_r_7,NULL,NULL,B R,NULL,1015
1426000894,6ac4ad734ca8dae22f339f8e4adb39a4,Trial,30,0,t_bd_l_1,NULL,NULL,B L,NULL,1095
1426000894,6ac4ad734ca8dae22f339f8e4adb39a4,Trial,43,0,t_bd_r_10,NULL,NULL,B R,NULL,1455
1426000894,6ac4ad734ca8dae22f339f8e4adb39a4,Trial,32,0,t_bd_l_6,NULL,NULL,B L,NULL,1034
1426000894,6ac4ad734ca8dae22f339f8e4adb39a4,Trial,31,0,t_bd_l_4,NULL,NULL,B L,NULL,850
1426000894,6ac4ad734ca8dae22f339f8e4adb39a4,Trial,38,0,t_bd_r_1,NULL,NULL,B R,NULL,1086
1426000894,6ac4ad734ca8dae22f339f8e4adb39a4,Trial,36,0,t_bd_l_14,NULL,NULL,D R,NULL,1472
1426000894,6ac4ad734ca8dae22f339f8e4adb39a4,Trial,45,0,t_bd_r_17,NULL,NULL,D R,NULL,908
1426000894,6ac4ad734ca8dae22f339f8e4adb39a4,Trial,38,0,t_bd_r_1,NULL,NULL,B R,NULL,997
1426000894,6ac4ad734ca8dae22f339f8e4adb39a4,Trial,44,0,t_bd_r_14,NULL,NULL,D R,NULL,1220
1426000894,6ac4ad734ca8dae22f339f8e4adb39a4,Trial,43,0,t_bd_r_10,NULL,NULL,B R,NULL,1844
1426000894,6ac4ad734ca8dae22f339f8e4adb39a4,Trial,42,0,t_bd_r_8,NULL,NULL,B R,NULL,1103
1426000894,6ac4ad734ca8dae22f339f8e4adb39a4,Trial,31,0,t_bd_l_4,NULL,NULL,B L,NULL,971
1426000894,6ac4ad734ca8dae22f339f8e4adb39a4,Trial,41,0,t_bd_r_7,NULL,NULL,B R,NULL,1060
1426000894,6ac4ad734ca8dae22f339f8e4adb39a4,Trial,32,0,t_bd_l_6,NULL,NULL,B L,NULL,1095
1426000894,6ac4ad734ca8dae22f339f8e4adb39a4,Trial,34,0,t_bd_l_8,NULL,NULL,B L,NULL,780
1426000894,6ac4ad734ca8dae22f339f8e4adb39a4,Trial,39,0,t_bd_r_4,NULL,NULL,B R,NULL,946
1426000894,6ac4ad734ca8dae22f339f8e4adb39a4,Trial,35,0,t_bd_l_10,NULL,NULL,B L,NULL,1166
1426000894,6ac4ad734ca8dae22f339f8e4adb39a4,Trial,37,0,t_bd_l_17,NULL,NULL,D L,NULL,1332
1426000894,6ac4ad734ca8dae22f339f8e4adb39a4,Trial,33,0,t_bd_l_7,NULL,NULL,B L,NULL,1438
1426000894,6ac4ad734ca8dae22f339f8e4adb39a4,Trial,40,0,t_bd_r_6,NULL,NULL,B R,NULL,1028
1426000894,6ac4ad734ca8dae22f339f8e4adb39a4,Trial,30,0,t_bd_l_1,NULL,NULL,B L,NULL,978
1426000894,6ac4ad734ca8dae22f339f8e4adb39a4,Trial,38,0,t_bd_r_1,NULL,NULL,B R,NULL,950
1426000894,6ac4ad734ca8dae22f339f8e4adb39a4,Trial,37,0,t_bd_l_17,NULL,NULL,D L,NULL,1299
1426000894,6ac4ad734ca8dae22f339f8e4adb39a4,Trial,36,0,t_bd_l_14,NULL,NULL,D L,NULL,917
1426000894,6ac4ad734ca8dae22f339f8e4adb39a4,Trial,35,0,t_bd_l_10,NULL,NULL,D L,NULL,938
1426000894,6ac4ad734ca8dae22f339f8e4adb39a4,Trial,32,0,t_bd_l_6,NULL,NULL,B L,NULL,1279
1426000894,6ac4ad734ca8dae22f339f8e4adb39a4,Trial,30,0,t_bd_l_1,NULL,NULL,B L,NULL,813
1426000894,6ac4ad734ca8dae22f339f8e4adb39a4,Trial,34,0,t_bd_l_8,NULL,NULL,B L,NULL,730
1426000894,6ac4ad734ca8dae22f339f8e4adb39a4,Trial,42,0,t_bd_r_8,NULL,NULL,B R,NULL,1027
1426000894,6ac4ad734ca8dae22f339f8e4adb39a4,Trial,45,0,t_bd_r_17,NULL,NULL,D R,NULL,996
1426000894,6ac4ad734ca8dae22f339f8e4adb39a4,Trial,44,0,t_bd_r_14,NULL,NULL,D R,NULL,706
1426000894,6ac4ad734ca8dae22f339f8e4adb39a4,Trial,33,0,t_bd_l_7,NULL,NULL,B L,NULL,1608
1426000894,6ac4ad734ca8dae22f339f8e4adb39a4,Trial,43,0,t_bd_r_10,NULL,NULL,B R,NULL,937
1426000894,6ac4ad734ca8dae22f339f8e4adb39a4,Trial,31,0,t_bd_l_4,NULL,NULL,B L,NULL,1200
1426000894,6ac4ad734ca8dae22f339f8e4adb39a4,Trial,41,0,t_bd_r_7,NULL,NULL,B R,NULL,1168
1426000894,6ac4ad734ca8dae22f339f8e4adb39a4,Trial,40,0,t_bd_r_6,NULL,NULL,B R,NULL,825
1426000894,6ac4ad734ca8dae22f339f8e4adb39a4,Trial,39,0,t_bd_r_4,NULL,NULL,B R,NULL,663
1426000894,6ac4ad734ca8dae22f339f8e4adb39a4,Trial,41,0,t_bd_r_7,NULL,NULL,B R,NULL,1038
1426000894,6ac4ad734ca8dae22f339f8e4adb39a4,Trial,42,0,t_bd_r_8,NULL,NULL,B R,NULL,637
1426000894,6ac4ad734ca8dae22f339f8e4adb39a4,Trial,34,0,t_bd_l_8,NULL,NULL,B L,NULL,1108
1426000894,6ac4ad734ca8dae22f339f8e4adb39a4,Trial,31,0,t_bd_l_4,NULL,NULL,B L,NULL,739
1426000894,6ac4ad734ca8dae22f339f8e4adb39a4,Trial,44,0,t_bd_r_14,NULL,NULL,B R,NULL,903
1426000894,6ac4ad734ca8dae22f339f8e4adb39a4,Trial,43,0,t_bd_r_10,NULL,NULL,D R,NULL,865
1426000894,6ac4ad734ca8dae22f339f8e4adb39a4,Trial,40,0,t_bd_r_6,NULL,NULL,B R,NULL,1310
1426000894,6ac4ad734ca8dae22f339f8e4adb39a4,Trial,32,0,t_bd_l_6,NULL,NULL,B L,NULL,1109
1426000894,6ac4ad734ca8dae22f339f8e4adb39a4,Trial,30,0,t_bd_l_1,NULL,NULL,B L,NULL,1210
1426000894,6ac4ad734ca8dae22f339f8e4adb39a4,Trial,45,0,t_bd_r_17,NULL,NULL,D R,NULL,995
1426000894,6ac4ad734ca8dae22f339f8e4adb39a4,Trial,37,0,t_bd_l_17,NULL,NULL,D L,NULL,964
1426000894,6ac4ad734ca8dae22f339f8e4adb39a4,Trial,39,0,t_bd_r_4,NULL,NULL,B R,NULL,984
1426000894,6ac4ad734ca8dae22f339f8e4adb39a4,Trial,36,0,t_bd_l_14,NULL,NULL,B L,NULL,846
1426000894,6ac4ad734ca8dae22f339f8e4adb39a4,Trial,33,0,t_bd_l_7,NULL,NULL,B L,NULL,826
1426000894,6ac4ad734ca8dae22f339f8e4adb39a4,Trial,35,0,t_bd_l_10,NULL,NULL,B L,NULL,690
1426000894,6ac4ad734ca8dae22f339f8e4adb39a4,Trial,38,0,t_bd_r_1,NULL,NULL,B R,NULL,800
1426000894,6ac4ad734ca8dae22f339f8e4adb39a4,Trial,41,0,t_bd_r_7,NULL,NULL,B R,NULL,670
1426000894,6ac4ad734ca8dae22f339f8e4adb39a4,Trial,32,0,t_bd_l_6,NULL,NULL,B L,NULL,978
1426000894,6ac4ad734ca8dae22f339f8e4adb39a4,Trial,30,0,t_bd_l_1,NULL,NULL,B L,NULL,663
1426000894,6ac4ad734ca8dae22f339f8e4adb39a4,Trial,38,0,t_bd_r_1,NULL,NULL,B R,NULL,944
1426000894,6ac4ad734ca8dae22f339f8e4adb39a4,Trial,44,0,t_bd_r_14,NULL,NULL,D R,NULL,789
1426000894,6ac4ad734ca8dae22f339f8e4adb39a4,Trial,37,0,t_bd_l_17,NULL,NULL,D L,NULL,1774
1426000894,6ac4ad734ca8dae22f339f8e4adb39a4,Trial,39,0,t_bd_r_4,NULL,NULL,B R,NULL,1056
1426000894,6ac4ad734ca8dae22f339f8e4adb39a4,Trial,42,0,t_bd_r_8,NULL,NULL,B R,NULL,1097
1426000894,6ac4ad734ca8dae22f339f8e4adb39a4,Trial,35,0,t_bd_l_10,NULL,NULL,B L,NULL,1469
1426000894,6ac4ad734ca8dae22f339f8e4adb39a4,Trial,45,0,t_bd_r_17,NULL,NULL,D R,NULL,996
1426000894,6ac4ad734ca8dae22f339f8e4adb39a4,Trial,36,0,t_bd_l_14,NULL,NULL,D L,NULL,1598
1426000894,6ac4ad734ca8dae22f339f8e4adb39a4,Trial,33,0,t_bd_l_7,NULL,NULL,B L,NULL,1193
1426000894,6ac4ad734ca8dae22f339f8e4adb39a4,Trial,31,0,t_bd_l_4,NULL,NULL,B L,NULL,981
1426000894,6ac4ad734ca8dae22f339f8e4adb39a4,Trial,34,0,t_bd_l_8,NULL,NULL,B L,NULL,724
1426000894,6ac4ad734ca8dae22f339f8e4adb39a4,Trial,40,0,t_bd_r_6,NULL,NULL,B R,NULL,1274
1426000894,6ac4ad734ca8dae22f339f8e4adb39a4,Trial,43,0,t_bd_r_10,NULL,NULL,B R,NULL,766
1426000894,6ac4ad734ca8dae22f339f8e4adb39a4,Trial,41,0,t_bd_r_7,NULL,NULL,B R,NULL,1124
1426000894,6ac4ad734ca8dae22f339f8e4adb39a4,Trial,35,0,t_bd_l_10,NULL,NULL,B L,NULL,1285
1426000894,6ac4ad734ca8dae22f339f8e4adb39a4,Trial,32,0,t_bd_l_6,NULL,NULL,B L,NULL,789
1426000894,6ac4ad734ca8dae22f339f8e4adb39a4,Trial,30,0,t_bd_l_1,NULL,NULL,B L,NULL,652
1426000894,6ac4ad734ca8dae22f339f8e4adb39a4,Trial,45,0,t_bd_r_17,NULL,NULL,D R,NULL,1133
1426000894,6ac4ad734ca8dae22f339f8e4adb39a4,Trial,37,0,t_bd_l_17,NULL,NULL,D L,NULL,1851
1426000894,6ac4ad734ca8dae22f339f8e4adb39a4,Trial,44,0,t_bd_r_14,NULL,NULL,D R,NULL,913
1426000894,6ac4ad734ca8dae22f339f8e4adb39a4,Trial,39,0,t_bd_r_4,NULL,NULL,B R,NULL,931
1426000894,6ac4ad734ca8dae22f339f8e4adb39a4,Trial,42,0,t_bd_r_8,NULL,NULL,B R,NULL,1056
1426000894,6ac4ad734ca8dae22f339f8e4adb39a4,Trial,38,0,t_bd_r_1,NULL,NULL,B R,NULL,782
1426000894,6ac4ad734ca8dae22f339f8e4adb39a4,Trial,43,0,t_bd_r_10,NULL,NULL,D R,NULL,769
1426000894,6ac4ad734ca8dae22f339f8e4adb39a4,Trial,31,0,t_bd_l_4,NULL,NULL,B L,NULL,1164
1426000894,6ac4ad734ca8dae22f339f8e4adb39a4,Trial,36,0,t_bd_l_14,NULL,NULL,D L,NULL,1420
1426000894,6ac4ad734ca8dae22f339f8e4adb39a4,Trial,33,0,t_bd_l_7,NULL,NULL,B L,NULL,902
1426000894,6ac4ad734ca8dae22f339f8e4adb39a4,Trial,34,0,t_bd_l_8,NULL,NULL,B L,NULL,954
1426000894,6ac4ad734ca8dae22f339f8e4adb39a4,Trial,40,0,t_bd_r_6,NULL,NULL,B R,NULL,1066
1426000894,6ac4ad734ca8dae22f339f8e4adb39a4,Trial,37,0,t_bd_l_17,NULL,NULL,D L,NULL,1401
1426000894,6ac4ad734ca8dae22f339f8e4adb39a4,Trial,32,0,t_bd_l_6,NULL,NULL,B L,NULL,1413
1426000894,6ac4ad734ca8dae22f339f8e4adb39a4,Trial,35,0,t_bd_l_10,NULL,NULL,B L,NULL,930
1426000894,6ac4ad734ca8dae22f339f8e4adb39a4,Trial,42,0,t_bd_r_8,NULL,NULL,B R,NULL,1026
1426000894,6ac4ad734ca8dae22f339f8e4adb39a4,Trial,43,0,t_bd_r_10,NULL,NULL,D R,NULL,1211
1426000894,6ac4ad734ca8dae22f339f8e4adb39a4,Trial,31,0,t_bd_l_4,NULL,NULL,B L,NULL,1218
1426000894,6ac4ad734ca8dae22f339f8e4adb39a4,Trial,41,0,t_bd_r_7,NULL,NULL,D R,NULL,1308
1426000894,6ac4ad734ca8dae22f339f8e4adb39a4,Trial,38,0,t_bd_r_1,NULL,NULL,B R,NULL,978
1426000894,6ac4ad734ca8dae22f339f8e4adb39a4,Trial,40,0,t_bd_r_6,NULL,NULL,B R,NULL,964
1426000894,6ac4ad734ca8dae22f339f8e4adb39a4,Trial,36,0,t_bd_l_14,NULL,NULL,D L,NULL,768
1426000894,6ac4ad734ca8dae22f339f8e4adb39a4,Trial,44,0,t_bd_r_14,NULL,NULL,D R,NULL,1002
1426000894,6ac4ad734ca8dae22f339f8e4adb39a4,Trial,45,0,t_bd_r_17,NULL,NULL,D R,NULL,807
1426000894,6ac4ad734ca8dae22f339f8e4adb39a4,Trial,33,0,t_bd_l_7,NULL,NULL,B L,NULL,1082
1426000894,6ac4ad734ca8dae22f339f8e4adb39a4,Trial,30,0,t_bd_l_1,NULL,NULL,B L,NULL,925
1426000894,6ac4ad734ca8dae22f339f8e4adb39a4,Trial,34,0,t_bd_l_8,NULL,NULL,D L,NULL,803
1426000894,6ac4ad734ca8dae22f339f8e4adb39a4,Trial,39,0,t_bd_r_4,NULL,NULL,B R,NULL,1209
# Columns below this comment are as follows:
# 1. Time results were received.
# 2. MD5 hash of participant's IP address.
# 3. Controller name.
# 4. Item number.
# 5. Element number.
# 6. Type.
# 7. Group.
# 8. Field name.
# 9. Field value.
1426000894,6ac4ad734ca8dae22f339f8e4adb39a4,Form,17,0,debrief,NULL,comments,
1426000894,6ac4ad734ca8dae22f339f8e4adb39a4,Form,17,0,debrief,NULL,_REACTION_TIME_,3708
1426000894,6ac4ad734ca8dae22f339f8e4adb39a4,Form,18,0,exit2,NULL,randomfield,lTecz2vv
1426000894,6ac4ad734ca8dae22f339f8e4adb39a4,Form,18,0,exit2,NULL,worker_id,AJY6J33X1KJNP
1426000894,6ac4ad734ca8dae22f339f8e4adb39a4,Form,18,0,exit2,NULL,identifier,lTecz2vv
1426000894,6ac4ad734ca8dae22f339f8e4adb39a4,Form,18,0,exit2,NULL,_REACTION_TIME_,13686
#
# Results on Tuesday March 10 2015 15:21:34 UTC.
# USER AGENT: Mozilla/5.0 (Windows NT 6.1; WOW64) AppleWebKit/537.36 (KHTML, like Gecko) Chrome/40.0.2214.115 Safari/537.36
# Design number was non-random = 1
#
# Columns below this comment are as follows:
# 1. Time results were received.
# 2. MD5 hash of participant's IP address.
# 3. Controller name.
# 4. Item number.
# 5. Element number.
# 6. Type.
# 7. Group.
# 8. Field name.
# 9. Field value.
1426000894,30eeb69cb205644fe29fac7416a0e8e5,Form,2,0,intro,NULL,consentanswer,brdldrblB R,D L,D R,B L
1426000894,30eeb69cb205644fe29fac7416a0e8e5,Form,2,0,intro,NULL,_REACTION_TIME_,4463
1426000894,30eeb69cb205644fe29fac7416a0e8e5,Form,3,0,questionnaire,NULL,write_something,
1426000894,30eeb69cb205644fe29fac7416a0e8e5,Form,3,0,questionnaire,NULL,NatLang,eng
1426000894,30eeb69cb205644fe29fac7416a0e8e5,Form,3,0,questionnaire,NULL,disorder,disorderno
1426000894,30eeb69cb205644fe29fac7416a0e8e5,Form,3,0,questionnaire,NULL,_REACTION_TIME_,7610
1426000894,30eeb69cb205644fe29fac7416a0e8e5,Form,4,0,headphones,NULL,headphonebrand,Microsoft
1426000894,30eeb69cb205644fe29fac7416a0e8e5,Form,4,0,headphones,NULL,headphonemodel,no model name%2C but have padded earphones
1426000894,30eeb69cb205644fe29fac7416a0e8e5,Form,4,0,headphones,NULL,headphoneyesno,headphoneyes
1426000894,30eeb69cb205644fe29fac7416a0e8e5,Form,4,0,headphones,NULL,_REACTION_TIME_,35147
# Columns below this comment are as follows:
# 1. Time results were received.
# 2. MD5 hash of participant's IP address.
# 3. Controller name.
# 4. Item number.
# 5. Element number.
# 6. Type.
# 7. Group.
# 8. Question (NULL if none).
# 9. Answer.
# 10. Whether or not answer was correct (NULL if N/A).
# 11. Time taken to answer.
1426000894,30eeb69cb205644fe29fac7416a0e8e5,Trial,22,0,pnt_bd_l_1,NULL,&nbsp;&nbsp;&nbsp;&nbsp;click on the sound,B L,NULL,2402
1426000894,30eeb69cb205644fe29fac7416a0e8e5,Trial,23,0,pnt_bd_l_17,NULL,&nbsp;&nbsp;&nbsp;&nbsp;click on the sound,D L,NULL,3883
1426000894,30eeb69cb205644fe29fac7416a0e8e5,Trial,24,0,pnt_bd_r_1,NULL,&nbsp;&nbsp;&nbsp;&nbsp;click on the sound,B R,NULL,2625
1426000894,30eeb69cb205644fe29fac7416a0e8e5,Trial,25,0,pnt_bd_r_17,NULL,&nbsp;&nbsp;&nbsp;&nbsp;click on the sound,D R,NULL,1474
1426000894,30eeb69cb205644fe29fac7416a0e8e5,Trial,28,0,pto_bd_r_1,NULL,&nbsp;&nbsp;&nbsp;&nbsp;click on the sound,B L,NULL,2186
1426000894,30eeb69cb205644fe29fac7416a0e8e5,Trial,29,0,pto_bd_r_17,NULL,&nbsp;&nbsp;&nbsp;&nbsp;click on the sound,NULL,NULL,4001
1426000894,30eeb69cb205644fe29fac7416a0e8e5,Trial,26,0,pto_bd_l_1,NULL,&nbsp;&nbsp;&nbsp;&nbsp;click on the sound,B L,NULL,1621
1426000894,30eeb69cb205644fe29fac7416a0e8e5,Trial,27,0,pto_bd_l_17,NULL,&nbsp;&nbsp;&nbsp;&nbsp;click on the sound,D L,NULL,1707
1426000894,30eeb69cb205644fe29fac7416a0e8e5,Trial,38,0,t_bd_r_1,NULL,NULL,B L,NULL,1441
1426000894,30eeb69cb205644fe29fac7416a0e8e5,Trial,37,0,t_bd_l_17,NULL,NULL,D L,NULL,1421
1426000894,30eeb69cb205644fe29fac7416a0e8e5,Trial,32,0,t_bd_l_6,NULL,NULL,B L,NULL,1576
1426000894,30eeb69cb205644fe29fac7416a0e8e5,Trial,31,0,t_bd_l_4,NULL,NULL,B L,NULL,1119
1426000894,30eeb69cb205644fe29fac7416a0e8e5,Trial,44,0,t_bd_r_14,NULL,NULL,D L,NULL,1516
1426000894,30eeb69cb205644fe29fac7416a0e8e5,Trial,36,0,t_bd_l_14,NULL,NULL,D L,NULL,1614
1426000894,30eeb69cb205644fe29fac7416a0e8e5,Trial,30,0,t_bd_l_1,NULL,NULL,B L,NULL,1080
1426000894,30eeb69cb205644fe29fac7416a0e8e5,Trial,41,0,t_bd_r_7,NULL,NULL,B L,NULL,1145
1426000894,30eeb69cb205644fe29fac7416a0e8e5,Trial,34,0,t_bd_l_8,NULL,NULL,D L,NULL,1167
1426000894,30eeb69cb205644fe29fac7416a0e8e5,Trial,35,0,t_bd_l_10,NULL,NULL,B L,NULL,1550
1426000894,30eeb69cb205644fe29fac7416a0e8e5,Trial,40,0,t_bd_r_6,NULL,NULL,B L,NULL,934
1426000894,30eeb69cb205644fe29fac7416a0e8e5,Trial,33,0,t_bd_l_7,NULL,NULL,B L,NULL,993
1426000894,30eeb69cb205644fe29fac7416a0e8e5,Trial,45,0,t_bd_r_17,NULL,NULL,D L,NULL,1005
1426000894,30eeb69cb205644fe29fac7416a0e8e5,Trial,39,0,t_bd_r_4,NULL,NULL,B L,NULL,1064
1426000894,30eeb69cb205644fe29fac7416a0e8e5,Trial,43,0,t_bd_r_10,NULL,NULL,D L,NULL,976
1426000894,30eeb69cb205644fe29fac7416a0e8e5,Trial,42,0,t_bd_r_8,NULL,NULL,B L,NULL,842
1426000894,30eeb69cb205644fe29fac7416a0e8e5,Trial,43,0,t_bd_r_10,NULL,NULL,B L,NULL,1010
1426000894,30eeb69cb205644fe29fac7416a0e8e5,Trial,40,0,t_bd_r_6,NULL,NULL,B L,NULL,1240
1426000894,30eeb69cb205644fe29fac7416a0e8e5,Trial,30,0,t_bd_l_1,NULL,NULL,B L,NULL,1121
1426000894,30eeb69cb205644fe29fac7416a0e8e5,Trial,32,0,t_bd_l_6,NULL,NULL,B L,NULL,945
1426000894,30eeb69cb205644fe29fac7416a0e8e5,Trial,37,0,t_bd_l_17,NULL,NULL,D L,NULL,888
1426000894,30eeb69cb205644fe29fac7416a0e8e5,Trial,45,0,t_bd_r_17,NULL,NULL,D L,NULL,1498
1426000894,30eeb69cb205644fe29fac7416a0e8e5,Trial,41,0,t_bd_r_7,NULL,NULL,B L,NULL,1233
1426000894,30eeb69cb205644fe29fac7416a0e8e5,Trial,38,0,t_bd_r_1,NULL,NULL,B L,NULL,1104
1426000894,30eeb69cb205644fe29fac7416a0e8e5,Trial,34,0,t_bd_l_8,NULL,NULL,D L,NULL,1206
1426000894,30eeb69cb205644fe29fac7416a0e8e5,Trial,44,0,t_bd_r_14,NULL,NULL,D L,NULL,858
1426000894,30eeb69cb205644fe29fac7416a0e8e5,Trial,31,0,t_bd_l_4,NULL,NULL,B L,NULL,897
1426000894,30eeb69cb205644fe29fac7416a0e8e5,Trial,42,0,t_bd_r_8,NULL,NULL,B L,NULL,944
1426000894,30eeb69cb205644fe29fac7416a0e8e5,Trial,36,0,t_bd_l_14,NULL,NULL,D L,NULL,1150
1426000894,30eeb69cb205644fe29fac7416a0e8e5,Trial,39,0,t_bd_r_4,NULL,NULL,B L,NULL,1530
1426000894,30eeb69cb205644fe29fac7416a0e8e5,Trial,33,0,t_bd_l_7,NULL,NULL,B L,NULL,1089
1426000894,30eeb69cb205644fe29fac7416a0e8e5,Trial,35,0,t_bd_l_10,NULL,NULL,D L,NULL,1008
1426000894,30eeb69cb205644fe29fac7416a0e8e5,Trial,41,0,t_bd_r_7,NULL,NULL,D R,NULL,2480
1426000894,30eeb69cb205644fe29fac7416a0e8e5,Trial,45,0,t_bd_r_17,NULL,NULL,D R,NULL,1832
1426000894,30eeb69cb205644fe29fac7416a0e8e5,Trial,35,0,t_bd_l_10,NULL,NULL,B L,NULL,992
1426000894,30eeb69cb205644fe29fac7416a0e8e5,Trial,31,0,t_bd_l_4,NULL,NULL,B L,NULL,735
1426000894,30eeb69cb205644fe29fac7416a0e8e5,Trial,43,0,t_bd_r_10,NULL,NULL,D L,NULL,1928
1426000894,30eeb69cb205644fe29fac7416a0e8e5,Trial,36,0,t_bd_l_14,NULL,NULL,D L,NULL,1007
1426000894,30eeb69cb205644fe29fac7416a0e8e5,Trial,34,0,t_bd_l_8,NULL,NULL,B L,NULL,745
1426000894,30eeb69cb205644fe29fac7416a0e8e5,Trial,30,0,t_bd_l_1,NULL,NULL,B L,NULL,1016
1426000894,30eeb69cb205644fe29fac7416a0e8e5,Trial,33,0,t_bd_l_7,NULL,NULL,B L,NULL,775
1426000894,30eeb69cb205644fe29fac7416a0e8e5,Trial,39,0,t_bd_r_4,NULL,NULL,B R,NULL,2408
1426000894,30eeb69cb205644fe29fac7416a0e8e5,Trial,37,0,t_bd_l_17,NULL,NULL,D L,NULL,928
1426000894,30eeb69cb205644fe29fac7416a0e8e5,Trial,42,0,t_bd_r_8,NULL,NULL,D R,NULL,1951
1426000894,30eeb69cb205644fe29fac7416a0e8e5,Trial,32,0,t_bd_l_6,NULL,NULL,B L,NULL,887
1426000894,30eeb69cb205644fe29fac7416a0e8e5,Trial,38,0,t_bd_r_1,NULL,NULL,B L,NULL,935
1426000894,30eeb69cb205644fe29fac7416a0e8e5,Trial,40,0,t_bd_r_6,NULL,NULL,B R,NULL,1546
1426000894,30eeb69cb205644fe29fac7416a0e8e5,Trial,44,0,t_bd_r_14,NULL,NULL,D R,NULL,1439
1426000894,30eeb69cb205644fe29fac7416a0e8e5,Trial,45,0,t_bd_r_17,NULL,NULL,D R,NULL,1131
1426000894,30eeb69cb205644fe29fac7416a0e8e5,Trial,37,0,t_bd_l_17,NULL,NULL,D L,NULL,1105
1426000894,30eeb69cb205644fe29fac7416a0e8e5,Trial,31,0,t_bd_l_4,NULL,NULL,B L,NULL,729
1426000894,30eeb69cb205644fe29fac7416a0e8e5,Trial,38,0,t_bd_r_1,NULL,NULL,B R,NULL,1393
1426000894,30eeb69cb205644fe29fac7416a0e8e5,Trial,44,0,t_bd_r_14,NULL,NULL,D R,NULL,1231
1426000894,30eeb69cb205644fe29fac7416a0e8e5,Trial,32,0,t_bd_l_6,NULL,NULL,B L,NULL,1049
1426000894,30eeb69cb205644fe29fac7416a0e8e5,Trial,40,0,t_bd_r_6,NULL,NULL,B R,NULL,1832
1426000894,30eeb69cb205644fe29fac7416a0e8e5,Trial,42,0,t_bd_r_8,NULL,NULL,B R,NULL,2040
1426000894,30eeb69cb205644fe29fac7416a0e8e5,Trial,41,0,t_bd_r_7,NULL,NULL,B R,NULL,1151
1426000894,30eeb69cb205644fe29fac7416a0e8e5,Trial,30,0,t_bd_l_1,NULL,NULL,B L,NULL,983
1426000894,30eeb69cb205644fe29fac7416a0e8e5,Trial,43,0,t_bd_r_10,NULL,NULL,B L,NULL,2209
1426000894,30eeb69cb205644fe29fac7416a0e8e5,Trial,34,0,t_bd_l_8,NULL,NULL,B L,NULL,832
1426000894,30eeb69cb205644fe29fac7416a0e8e5,Trial,36,0,t_bd_l_14,NULL,NULL,D L,NULL,1345
1426000894,30eeb69cb205644fe29fac7416a0e8e5,Trial,33,0,t_bd_l_7,NULL,NULL,B L,NULL,1049
1426000894,30eeb69cb205644fe29fac7416a0e8e5,Trial,35,0,t_bd_l_10,NULL,NULL,B L,NULL,855
1426000894,30eeb69cb205644fe29fac7416a0e8e5,Trial,39,0,t_bd_r_4,NULL,NULL,B R,NULL,1626
1426000894,30eeb69cb205644fe29fac7416a0e8e5,Trial,41,0,t_bd_r_7,NULL,NULL,B R,NULL,1599
1426000894,30eeb69cb205644fe29fac7416a0e8e5,Trial,43,0,t_bd_r_10,NULL,NULL,B R,NULL,1159
1426000894,30eeb69cb205644fe29fac7416a0e8e5,Trial,37,0,t_bd_l_17,NULL,NULL,B L,NULL,1788
1426000894,30eeb69cb205644fe29fac7416a0e8e5,Trial,39,0,t_bd_r_4,NULL,NULL,B R,NULL,2238
1426000894,30eeb69cb205644fe29fac7416a0e8e5,Trial,42,0,t_bd_r_8,NULL,NULL,B R,NULL,1049
1426000894,30eeb69cb205644fe29fac7416a0e8e5,Trial,32,0,t_bd_l_6,NULL,NULL,B L,NULL,798
1426000894,30eeb69cb205644fe29fac7416a0e8e5,Trial,30,0,t_bd_l_1,NULL,NULL,B L,NULL,664
1426000894,30eeb69cb205644fe29fac7416a0e8e5,Trial,45,0,t_bd_r_17,NULL,NULL,D L,NULL,824
1426000894,30eeb69cb205644fe29fac7416a0e8e5,Trial,31,0,t_bd_l_4,NULL,NULL,B L,NULL,1042
1426000894,30eeb69cb205644fe29fac7416a0e8e5,Trial,33,0,t_bd_l_7,NULL,NULL,B L,NULL,890
1426000894,30eeb69cb205644fe29fac7416a0e8e5,Trial,44,0,t_bd_r_14,NULL,NULL,D R,NULL,1346
1426000894,30eeb69cb205644fe29fac7416a0e8e5,Trial,35,0,t_bd_l_10,NULL,NULL,D L,NULL,1328
1426000894,30eeb69cb205644fe29fac7416a0e8e5,Trial,36,0,t_bd_l_14,NULL,NULL,D L,NULL,872
1426000894,30eeb69cb205644fe29fac7416a0e8e5,Trial,38,0,t_bd_r_1,NULL,NULL,B R,NULL,1337
1426000894,30eeb69cb205644fe29fac7416a0e8e5,Trial,34,0,t_bd_l_8,NULL,NULL,B L,NULL,1000
1426000894,30eeb69cb205644fe29fac7416a0e8e5,Trial,40,0,t_bd_r_6,NULL,NULL,B R,NULL,1177
1426000894,30eeb69cb205644fe29fac7416a0e8e5,Trial,45,0,t_bd_r_17,NULL,NULL,D R,NULL,1322
1426000894,30eeb69cb205644fe29fac7416a0e8e5,Trial,31,0,t_bd_l_4,NULL,NULL,B L,NULL,946
1426000894,30eeb69cb205644fe29fac7416a0e8e5,Trial,38,0,t_bd_r_1,NULL,NULL,D R,NULL,1567
1426000894,30eeb69cb205644fe29fac7416a0e8e5,Trial,39,0,t_bd_r_4,NULL,NULL,B R,NULL,1136
1426000894,30eeb69cb205644fe29fac7416a0e8e5,Trial,33,0,t_bd_l_7,NULL,NULL,B L,NULL,688
1426000894,30eeb69cb205644fe29fac7416a0e8e5,Trial,37,0,t_bd_l_17,NULL,NULL,D L,NULL,1526
1426000894,30eeb69cb205644fe29fac7416a0e8e5,Trial,35,0,t_bd_l_10,NULL,NULL,D L,NULL,1171
1426000894,30eeb69cb205644fe29fac7416a0e8e5,Trial,32,0,t_bd_l_6,NULL,NULL,B L,NULL,1161
1426000894,30eeb69cb205644fe29fac7416a0e8e5,Trial,36,0,t_bd_l_14,NULL,NULL,D L,NULL,1064
1426000894,30eeb69cb205644fe29fac7416a0e8e5,Trial,34,0,t_bd_l_8,NULL,NULL,B L,NULL,737
1426000894,30eeb69cb205644fe29fac7416a0e8e5,Trial,44,0,t_bd_r_14,NULL,NULL,D R,NULL,1385
1426000894,30eeb69cb205644fe29fac7416a0e8e5,Trial,41,0,t_bd_r_7,NULL,NULL,D R,NULL,1385
1426000894,30eeb69cb205644fe29fac7416a0e8e5,Trial,42,0,t_bd_r_8,NULL,NULL,B R,NULL,1217
1426000894,30eeb69cb205644fe29fac7416a0e8e5,Trial,43,0,t_bd_r_10,NULL,NULL,D R,NULL,1490
1426000894,30eeb69cb205644fe29fac7416a0e8e5,Trial,30,0,t_bd_l_1,NULL,NULL,B L,NULL,905
1426000894,30eeb69cb205644fe29fac7416a0e8e5,Trial,40,0,t_bd_r_6,NULL,NULL,B R,NULL,1336
1426000894,30eeb69cb205644fe29fac7416a0e8e5,Trial,44,0,t_bd_r_14,NULL,NULL,D R,NULL,1432
1426000894,30eeb69cb205644fe29fac7416a0e8e5,Trial,45,0,t_bd_r_17,NULL,NULL,D R,NULL,1305
1426000894,30eeb69cb205644fe29fac7416a0e8e5,Trial,30,0,t_bd_l_1,NULL,NULL,B L,NULL,1002
1426000894,30eeb69cb205644fe29fac7416a0e8e5,Trial,33,0,t_bd_l_7,NULL,NULL,B L,NULL,624
1426000894,30eeb69cb205644fe29fac7416a0e8e5,Trial,42,0,t_bd_r_8,NULL,NULL,B R,NULL,1170
1426000894,30eeb69cb205644fe29fac7416a0e8e5,Trial,34,0,t_bd_l_8,NULL,NULL,B L,NULL,688
1426000894,30eeb69cb205644fe29fac7416a0e8e5,Trial,40,0,t_bd_r_6,NULL,NULL,B R,NULL,808
1426000894,30eeb69cb205644fe29fac7416a0e8e5,Trial,38,0,t_bd_r_1,NULL,NULL,B L,NULL,572
1426000894,30eeb69cb205644fe29fac7416a0e8e5,Trial,32,0,t_bd_l_6,NULL,NULL,B L,NULL,815
1426000894,30eeb69cb205644fe29fac7416a0e8e5,Trial,37,0,t_bd_l_17,NULL,NULL,D L,NULL,1185
1426000894,30eeb69cb205644fe29fac7416a0e8e5,Trial,31,0,t_bd_l_4,NULL,NULL,B L,NULL,1337
1426000894,30eeb69cb205644fe29fac7416a0e8e5,Trial,36,0,t_bd_l_14,NULL,NULL,D L,NULL,1042
1426000894,30eeb69cb205644fe29fac7416a0e8e5,Trial,39,0,t_bd_r_4,NULL,NULL,B R,NULL,1827
1426000894,30eeb69cb205644fe29fac7416a0e8e5,Trial,41,0,t_bd_r_7,NULL,NULL,B R,NULL,1216
1426000894,30eeb69cb205644fe29fac7416a0e8e5,Trial,43,0,t_bd_r_10,NULL,NULL,D R,NULL,1544
1426000894,30eeb69cb205644fe29fac7416a0e8e5,Trial,35,0,t_bd_l_10,NULL,NULL,D L,NULL,970
1426000894,30eeb69cb205644fe29fac7416a0e8e5,Trial,41,0,t_bd_r_7,NULL,NULL,B R,NULL,1627
1426000894,30eeb69cb205644fe29fac7416a0e8e5,Trial,35,0,t_bd_l_10,NULL,NULL,B L,NULL,818
1426000894,30eeb69cb205644fe29fac7416a0e8e5,Trial,40,0,t_bd_r_6,NULL,NULL,B R,NULL,1187
1426000894,30eeb69cb205644fe29fac7416a0e8e5,Trial,33,0,t_bd_l_7,NULL,NULL,B L,NULL,856
1426000894,30eeb69cb205644fe29fac7416a0e8e5,Trial,31,0,t_bd_l_4,NULL,NULL,B L,NULL,825
1426000894,30eeb69cb205644fe29fac7416a0e8e5,Trial,43,0,t_bd_r_10,NULL,NULL,B R,NULL,863
1426000894,30eeb69cb205644fe29fac7416a0e8e5,Trial,42,0,t_bd_r_8,NULL,NULL,B R,NULL,1641
1426000894,30eeb69cb205644fe29fac7416a0e8e5,Trial,32,0,t_bd_l_6,NULL,NULL,B L,NULL,1089
1426000894,30eeb69cb205644fe29fac7416a0e8e5,Trial,36,0,t_bd_l_14,NULL,NULL,D L,NULL,1441
1426000894,30eeb69cb205644fe29fac7416a0e8e5,Trial,34,0,t_bd_l_8,NULL,NULL,B L,NULL,1041
1426000894,30eeb69cb205644fe29fac7416a0e8e5,Trial,30,0,t_bd_l_1,NULL,NULL,B L,NULL,864
1426000894,30eeb69cb205644fe29fac7416a0e8e5,Trial,39,0,t_bd_r_4,NULL,NULL,B R,NULL,1368
1426000894,30eeb69cb205644fe29fac7416a0e8e5,Trial,45,0,t_bd_r_17,NULL,NULL,D R,NULL,1376
1426000894,30eeb69cb205644fe29fac7416a0e8e5,Trial,44,0,t_bd_r_14,NULL,NULL,D R,NULL,783
1426000894,30eeb69cb205644fe29fac7416a0e8e5,Trial,38,0,t_bd_r_1,NULL,NULL,B R,NULL,1297
1426000894,30eeb69cb205644fe29fac7416a0e8e5,Trial,37,0,t_bd_l_17,NULL,NULL,D L,NULL,1058
# Columns below this comment are as follows:
# 1. Time results were received.
# 2. MD5 hash of participant's IP address.
# 3. Controller name.
# 4. Item number.
# 5. Element number.
# 6. Type.
# 7. Group.
# 8. Field name.
# 9. Field value.
1426000894,30eeb69cb205644fe29fac7416a0e8e5,Form,17,0,debrief,NULL,comments,
1426000894,30eeb69cb205644fe29fac7416a0e8e5,Form,17,0,debrief,NULL,_REACTION_TIME_,2323
1426000894,30eeb69cb205644fe29fac7416a0e8e5,Form,18,0,exit2,NULL,randomfield,bNBSRVH8
1426000894,30eeb69cb205644fe29fac7416a0e8e5,Form,18,0,exit2,NULL,worker_id,A24QSO0ZGQNMRF%0A
1426000894,30eeb69cb205644fe29fac7416a0e8e5,Form,18,0,exit2,NULL,identifier,bNBSRVH8
1426000894,30eeb69cb205644fe29fac7416a0e8e5,Form,18,0,exit2,NULL,_REACTION_TIME_,18735
#
# Results on Tuesday March 10 2015 15:25:21 UTC.
# USER AGENT: Mozilla/5.0 (Macintosh; Intel Mac OS X 10_7_5) AppleWebKit/537.78.2 (KHTML, like Gecko) Version/6.1.6 Safari/537.78.2
# Design number was non-random = 1
#
# Columns below this comment are as follows:
# 1. Time results were received.
# 2. MD5 hash of participant's IP address.
# 3. Controller name.
# 4. Item number.
# 5. Element number.
# 6. Type.
# 7. Group.
# 8. Field name.
# 9. Field value.
1426001121,373e5b4143b1795351286e311cc225df,Form,2,0,intro,NULL,consentanswer,brdlbldrB R,D L,B L,D R
1426001121,373e5b4143b1795351286e311cc225df,Form,2,0,intro,NULL,_REACTION_TIME_,5442
1426001121,373e5b4143b1795351286e311cc225df,Form,3,0,questionnaire,NULL,write_something,
1426001121,373e5b4143b1795351286e311cc225df,Form,3,0,questionnaire,NULL,NatLang,eng
1426001121,373e5b4143b1795351286e311cc225df,Form,3,0,questionnaire,NULL,disorder,disorderno
1426001121,373e5b4143b1795351286e311cc225df,Form,3,0,questionnaire,NULL,_REACTION_TIME_,9188
1426001121,373e5b4143b1795351286e311cc225df,Form,4,0,headphones,NULL,headphonebrand,apple ear buds
1426001121,373e5b4143b1795351286e311cc225df,Form,4,0,headphones,NULL,headphonemodel,i do not know
1426001121,373e5b4143b1795351286e311cc225df,Form,4,0,headphones,NULL,headphoneyesno,headphoneyes
1426001121,373e5b4143b1795351286e311cc225df,Form,4,0,headphones,NULL,_REACTION_TIME_,20471
# Columns below this comment are as follows:
# 1. Time results were received.
# 2. MD5 hash of participant's IP address.
# 3. Controller name.
# 4. Item number.
# 5. Element number.
# 6. Type.
# 7. Group.
# 8. Question (NULL if none).
# 9. Answer.
# 10. Whether or not answer was correct (NULL if N/A).
# 11. Time taken to answer.
1426001121,373e5b4143b1795351286e311cc225df,Trial,25,0,pnt_bd_r_17,NULL,&nbsp;&nbsp;&nbsp;&nbsp;click on the sound,B L,NULL,7090
1426001121,373e5b4143b1795351286e311cc225df,Trial,24,0,pnt_bd_r_1,NULL,&nbsp;&nbsp;&nbsp;&nbsp;click on the sound,B L,NULL,4978
1426001121,373e5b4143b1795351286e311cc225df,Trial,22,0,pnt_bd_l_1,NULL,&nbsp;&nbsp;&nbsp;&nbsp;click on the sound,B L,NULL,3408
1426001121,373e5b4143b1795351286e311cc225df,Trial,23,0,pnt_bd_l_17,NULL,&nbsp;&nbsp;&nbsp;&nbsp;click on the sound,D L,NULL,4687
1426001121,373e5b4143b1795351286e311cc225df,Trial,29,0,pto_bd_r_17,NULL,&nbsp;&nbsp;&nbsp;&nbsp;click on the sound,D R,NULL,2027
1426001121,373e5b4143b1795351286e311cc225df,Trial,27,0,pto_bd_l_17,NULL,&nbsp;&nbsp;&nbsp;&nbsp;click on the sound,B L,NULL,2831
1426001121,373e5b4143b1795351286e311cc225df,Trial,26,0,pto_bd_l_1,NULL,&nbsp;&nbsp;&nbsp;&nbsp;click on the sound,B L,NULL,1817
1426001121,373e5b4143b1795351286e311cc225df,Trial,28,0,pto_bd_r_1,NULL,&nbsp;&nbsp;&nbsp;&nbsp;click on the sound,B R,NULL,1817
1426001121,373e5b4143b1795351286e311cc225df,Trial,36,0,t_bd_l_14,NULL,NULL,B L,NULL,3188
1426001121,373e5b4143b1795351286e311cc225df,Trial,31,0,t_bd_l_4,NULL,NULL,B L,NULL,3493
1426001121,373e5b4143b1795351286e311cc225df,Trial,43,0,t_bd_r_10,NULL,NULL,NULL,NULL,3700
1426001121,373e5b4143b1795351286e311cc225df,Trial,37,0,t_bd_l_17,NULL,NULL,D L,NULL,1707
1426001121,373e5b4143b1795351286e311cc225df,Trial,44,0,t_bd_r_14,NULL,NULL,B R,NULL,2354
1426001121,373e5b4143b1795351286e311cc225df,Trial,42,0,t_bd_r_8,NULL,NULL,NULL,NULL,3700
1426001121,373e5b4143b1795351286e311cc225df,Trial,40,0,t_bd_r_6,NULL,NULL,B R,NULL,2612
1426001121,373e5b4143b1795351286e311cc225df,Trial,32,0,t_bd_l_6,NULL,NULL,B L,NULL,2975
1426001121,373e5b4143b1795351286e311cc225df,Trial,39,0,t_bd_r_4,NULL,NULL,B R,NULL,3333
1426001121,373e5b4143b1795351286e311cc225df,Trial,34,0,t_bd_l_8,NULL,NULL,B L,NULL,3100
1426001121,373e5b4143b1795351286e311cc225df,Trial,30,0,t_bd_l_1,NULL,NULL,B L,NULL,2177
1426001121,373e5b4143b1795351286e311cc225df,Trial,45,0,t_bd_r_17,NULL,NULL,D R,NULL,1676
1426001121,373e5b4143b1795351286e311cc225df,Trial,35,0,t_bd_l_10,NULL,NULL,B L,NULL,2860
1426001121,373e5b4143b1795351286e311cc225df,Trial,33,0,t_bd_l_7,NULL,NULL,B L,NULL,3078
1426001121,373e5b4143b1795351286e311cc225df,Trial,41,0,t_bd_r_7,NULL,NULL,B R,NULL,2684
1426001121,373e5b4143b1795351286e311cc225df,Trial,38,0,t_bd_r_1,NULL,NULL,B R,NULL,1548
1426001121,373e5b4143b1795351286e311cc225df,Trial,30,0,t_bd_l_1,NULL,NULL,B L,NULL,1850
1426001121,373e5b4143b1795351286e311cc225df,Trial,44,0,t_bd_r_14,NULL,NULL,D R,NULL,1672
1426001121,373e5b4143b1795351286e311cc225df,Trial,32,0,t_bd_l_6,NULL,NULL,B L,NULL,2064
1426001121,373e5b4143b1795351286e311cc225df,Trial,43,0,t_bd_r_10,NULL,NULL,B R,NULL,2263
1426001121,373e5b4143b1795351286e311cc225df,Trial,40,0,t_bd_r_6,NULL,NULL,B R,NULL,1443
1426001121,373e5b4143b1795351286e311cc225df,Trial,42,0,t_bd_r_8,NULL,NULL,B R,NULL,1615
1426001121,373e5b4143b1795351286e311cc225df,Trial,34,0,t_bd_l_8,NULL,NULL,B L,NULL,2155
1426001121,373e5b4143b1795351286e311cc225df,Trial,41,0,t_bd_r_7,NULL,NULL,B R,NULL,2131
1426001121,373e5b4143b1795351286e311cc225df,Trial,33,0,t_bd_l_7,NULL,NULL,B L,NULL,2256
1426001121,373e5b4143b1795351286e311cc225df,Trial,37,0,t_bd_l_17,NULL,NULL,B L,NULL,2188
1426001121,373e5b4143b1795351286e311cc225df,Trial,36,0,t_bd_l_14,NULL,NULL,B L,NULL,2446
1426001121,373e5b4143b1795351286e311cc225df,Trial,31,0,t_bd_l_4,NULL,NULL,B L,NULL,2034
1426001121,373e5b4143b1795351286e311cc225df,Trial,35,0,t_bd_l_10,NULL,NULL,B L,NULL,1735
1426001121,373e5b4143b1795351286e311cc225df,Trial,38,0,t_bd_r_1,NULL,NULL,B R,NULL,1850
1426001121,373e5b4143b1795351286e311cc225df,Trial,45,0,t_bd_r_17,NULL,NULL,D R,NULL,1750
1426001121,373e5b4143b1795351286e311cc225df,Trial,39,0,t_bd_r_4,NULL,NULL,B R,NULL,2514
1426001121,373e5b4143b1795351286e311cc225df,Trial,41,0,t_bd_r_7,NULL,NULL,B R,NULL,1713
1426001121,373e5b4143b1795351286e311cc225df,Trial,35,0,t_bd_l_10,NULL,NULL,B L,NULL,2278
1426001121,373e5b4143b1795351286e311cc225df,Trial,42,0,t_bd_r_8,NULL,NULL,B R,NULL,1717
1426001121,373e5b4143b1795351286e311cc225df,Trial,40,0,t_bd_r_6,NULL,NULL,B R,NULL,1288
1426001121,373e5b4143b1795351286e311cc225df,Trial,32,0,t_bd_l_6,NULL,NULL,B L,NULL,1870
1426001121,373e5b4143b1795351286e311cc225df,Trial,37,0,t_bd_l_17,NULL,NULL,D L,NULL,2690
1426001121,373e5b4143b1795351286e311cc225df,Trial,33,0,t_bd_l_7,NULL,NULL,B L,NULL,2323
1426001121,373e5b4143b1795351286e311cc225df,Trial,31,0,t_bd_l_4,NULL,NULL,B L,NULL,1816
1426001121,373e5b4143b1795351286e311cc225df,Trial,36,0,t_bd_l_14,NULL,NULL,B L,NULL,1715
1426001121,373e5b4143b1795351286e311cc225df,Trial,45,0,t_bd_r_17,NULL,NULL,B L,NULL,1782
1426001121,373e5b4143b1795351286e311cc225df,Trial,43,0,t_bd_r_10,NULL,NULL,B R,NULL,2019
1426001121,373e5b4143b1795351286e311cc225df,Trial,30,0,t_bd_l_1,NULL,NULL,B L,NULL,1799
1426001121,373e5b4143b1795351286e311cc225df,Trial,34,0,t_bd_l_8,NULL,NULL,B L,NULL,2009
1426001121,373e5b4143b1795351286e311cc225df,Trial,38,0,t_bd_r_1,NULL,NULL,B R,NULL,1613
1426001121,373e5b4143b1795351286e311cc225df,Trial,39,0,t_bd_r_4,NULL,NULL,B R,NULL,3223
1426001121,373e5b4143b1795351286e311cc225df,Trial,44,0,t_bd_r_14,NULL,NULL,B R,NULL,1919
1426001121,373e5b4143b1795351286e311cc225df,Trial,44,0,t_bd_r_14,NULL,NULL,B R,NULL,2795
1426001121,373e5b4143b1795351286e311cc225df,Trial,45,0,t_bd_r_17,NULL,NULL,D R,NULL,2820
1426001121,373e5b4143b1795351286e311cc225df,Trial,36,0,t_bd_l_14,NULL,NULL,B L,NULL,1907
1426001121,373e5b4143b1795351286e311cc225df,Trial,35,0,t_bd_l_10,NULL,NULL,B L,NULL,2379
1426001121,373e5b4143b1795351286e311cc225df,Trial,30,0,t_bd_l_1,NULL,NULL,B L,NULL,1841
1426001121,373e5b4143b1795351286e311cc225df,Trial,40,0,t_bd_r_6,NULL,NULL,B R,NULL,1915
1426001121,373e5b4143b1795351286e311cc225df,Trial,34,0,t_bd_l_8,NULL,NULL,B L,NULL,2204
1426001121,373e5b4143b1795351286e311cc225df,Trial,39,0,t_bd_r_4,NULL,NULL,B L,NULL,2289
1426001121,373e5b4143b1795351286e311cc225df,Trial,41,0,t_bd_r_7,NULL,NULL,B R,NULL,2042
1426001121,373e5b4143b1795351286e311cc225df,Trial,32,0,t_bd_l_6,NULL,NULL,B L,NULL,2173
1426001121,373e5b4143b1795351286e311cc225df,Trial,33,0,t_bd_l_7,NULL,NULL,NULL,NULL,3701
1426001121,373e5b4143b1795351286e311cc225df,Trial,37,0,t_bd_l_17,NULL,NULL,B L,NULL,1953
1426001121,373e5b4143b1795351286e311cc225df,Trial,42,0,t_bd_r_8,NULL,NULL,B R,NULL,1761
1426001121,373e5b4143b1795351286e311cc225df,Trial,38,0,t_bd_r_1,NULL,NULL,B R,NULL,1769
1426001121,373e5b4143b1795351286e311cc225df,Trial,31,0,t_bd_l_4,NULL,NULL,B L,NULL,1974
1426001121,373e5b4143b1795351286e311cc225df,Trial,43,0,t_bd_r_10,NULL,NULL,B R,NULL,1795
1426001121,373e5b4143b1795351286e311cc225df,Trial,30,0,t_bd_l_1,NULL,NULL,B L,NULL,2398
1426001121,373e5b4143b1795351286e311cc225df,Trial,45,0,t_bd_r_17,NULL,NULL,D R,NULL,2818
1426001121,373e5b4143b1795351286e311cc225df,Trial,42,0,t_bd_r_8,NULL,NULL,B R,NULL,2142
1426001121,373e5b4143b1795351286e311cc225df,Trial,34,0,t_bd_l_8,NULL,NULL,B L,NULL,2076
1426001121,373e5b4143b1795351286e311cc225df,Trial,43,0,t_bd_r_10,NULL,NULL,B R,NULL,2537
1426001121,373e5b4143b1795351286e311cc225df,Trial,40,0,t_bd_r_6,NULL,NULL,NULL,NULL,3700
1426001121,373e5b4143b1795351286e311cc225df,Trial,37,0,t_bd_l_17,NULL,NULL,D L,NULL,2935
1426001121,373e5b4143b1795351286e311cc225df,Trial,33,0,t_bd_l_7,NULL,NULL,B L,NULL,2263
1426001121,373e5b4143b1795351286e311cc225df,Trial,44,0,t_bd_r_14,NULL,NULL,B R,NULL,2020
1426001121,373e5b4143b1795351286e311cc225df,Trial,38,0,t_bd_r_1,NULL,NULL,B R,NULL,1749
1426001121,373e5b4143b1795351286e311cc225df,Trial,35,0,t_bd_l_10,NULL,NULL,B L,NULL,2065
1426001121,373e5b4143b1795351286e311cc225df,Trial,32,0,t_bd_l_6,NULL,NULL,B L,NULL,1803
1426001121,373e5b4143b1795351286e311cc225df,Trial,31,0,t_bd_l_4,NULL,NULL,B L,NULL,1736
1426001121,373e5b4143b1795351286e311cc225df,Trial,39,0,t_bd_r_4,NULL,NULL,B R,NULL,1469
1426001121,373e5b4143b1795351286e311cc225df,Trial,36,0,t_bd_l_14,NULL,NULL,B L,NULL,1974
1426001121,373e5b4143b1795351286e311cc225df,Trial,41,0,t_bd_r_7,NULL,NULL,B R,NULL,1649
1426001121,373e5b4143b1795351286e311cc225df,Trial,36,0,t_bd_l_14,NULL,NULL,D L,NULL,2198
1426001121,373e5b4143b1795351286e311cc225df,Trial,43,0,t_bd_r_10,NULL,NULL,B R,NULL,1581
1426001121,373e5b4143b1795351286e311cc225df,Trial,30,0,t_bd_l_1,NULL,NULL,B L,NULL,1998
1426001121,373e5b4143b1795351286e311cc225df,Trial,37,0,t_bd_l_17,NULL,NULL,D L,NULL,1995
1426001121,373e5b4143b1795351286e311cc225df,Trial,38,0,t_bd_r_1,NULL,NULL,B R,NULL,1716
1426001121,373e5b4143b1795351286e311cc225df,Trial,35,0,t_bd_l_10,NULL,NULL,B L,NULL,2233
1426001121,373e5b4143b1795351286e311cc225df,Trial,41,0,t_bd_r_7,NULL,NULL,B R,NULL,1862
1426001121,373e5b4143b1795351286e311cc225df,Trial,40,0,t_bd_r_6,NULL,NULL,B R,NULL,1486
1426001121,373e5b4143b1795351286e311cc225df,Trial,33,0,t_bd_l_7,NULL,NULL,D L,NULL,1691
1426001121,373e5b4143b1795351286e311cc225df,Trial,44,0,t_bd_r_14,NULL,NULL,B R,NULL,1750
1426001121,373e5b4143b1795351286e311cc225df,Trial,39,0,t_bd_r_4,NULL,NULL,B R,NULL,1423
1426001121,373e5b4143b1795351286e311cc225df,Trial,31,0,t_bd_l_4,NULL,NULL,B L,NULL,1602
1426001121,373e5b4143b1795351286e311cc225df,Trial,34,0,t_bd_l_8,NULL,NULL,B L,NULL,2199
1426001121,373e5b4143b1795351286e311cc225df,Trial,32,0,t_bd_l_6,NULL,NULL,B L,NULL,2267
1426001121,373e5b4143b1795351286e311cc225df,Trial,45,0,t_bd_r_17,NULL,NULL,B R,NULL,1514
1426001121,373e5b4143b1795351286e311cc225df,Trial,42,0,t_bd_r_8,NULL,NULL,B R,NULL,1492
1426001121,373e5b4143b1795351286e311cc225df,Trial,39,0,t_bd_r_4,NULL,NULL,B R,NULL,1532
1426001121,373e5b4143b1795351286e311cc225df,Trial,44,0,t_bd_r_14,NULL,NULL,D R,NULL,1986
1426001121,373e5b4143b1795351286e311cc225df,Trial,45,0,t_bd_r_17,NULL,NULL,B R,NULL,1852
1426001121,373e5b4143b1795351286e311cc225df,Trial,42,0,t_bd_r_8,NULL,NULL,B R,NULL,1451
1426001121,373e5b4143b1795351286e311cc225df,Trial,32,0,t_bd_l_6,NULL,NULL,B L,NULL,1756
1426001121,373e5b4143b1795351286e311cc225df,Trial,43,0,t_bd_r_10,NULL,NULL,NULL,NULL,3700
1426001121,373e5b4143b1795351286e311cc225df,Trial,34,0,t_bd_l_8,NULL,NULL,B L,NULL,3180
1426001121,373e5b4143b1795351286e311cc225df,Trial,30,0,t_bd_l_1,NULL,NULL,B L,NULL,2050
1426001121,373e5b4143b1795351286e311cc225df,Trial,41,0,t_bd_r_7,NULL,NULL,B R,NULL,1986
1426001121,373e5b4143b1795351286e311cc225df,Trial,38,0,t_bd_r_1,NULL,NULL,B R,NULL,1773
1426001121,373e5b4143b1795351286e311cc225df,Trial,35,0,t_bd_l_10,NULL,NULL,B L,NULL,2155
1426001121,373e5b4143b1795351286e311cc225df,Trial,36,0,t_bd_l_14,NULL,NULL,B L,NULL,1885
1426001121,373e5b4143b1795351286e311cc225df,Trial,40,0,t_bd_r_6,NULL,NULL,D L,NULL,2639
1426001121,373e5b4143b1795351286e311cc225df,Trial,33,0,t_bd_l_7,NULL,NULL,B L,NULL,1907
1426001121,373e5b4143b1795351286e311cc225df,Trial,31,0,t_bd_l_4,NULL,NULL,B L,NULL,2166
1426001121,373e5b4143b1795351286e311cc225df,Trial,37,0,t_bd_l_17,NULL,NULL,B L,NULL,2133
1426001121,373e5b4143b1795351286e311cc225df,Trial,41,0,t_bd_r_7,NULL,NULL,B R,NULL,1984
1426001121,373e5b4143b1795351286e311cc225df,Trial,42,0,t_bd_r_8,NULL,NULL,B R,NULL,2932
1426001121,373e5b4143b1795351286e311cc225df,Trial,39,0,t_bd_r_4,NULL,NULL,B R,NULL,1681
1426001121,373e5b4143b1795351286e311cc225df,Trial,31,0,t_bd_l_4,NULL,NULL,B L,NULL,1840
1426001121,373e5b4143b1795351286e311cc225df,Trial,32,0,t_bd_l_6,NULL,NULL,B L,NULL,3123
1426001121,373e5b4143b1795351286e311cc225df,Trial,43,0,t_bd_r_10,NULL,NULL,B R,NULL,1603
1426001121,373e5b4143b1795351286e311cc225df,Trial,34,0,t_bd_l_8,NULL,NULL,B L,NULL,2740
1426001121,373e5b4143b1795351286e311cc225df,Trial,44,0,t_bd_r_14,NULL,NULL,B R,NULL,1491
1426001121,373e5b4143b1795351286e311cc225df,Trial,45,0,t_bd_r_17,NULL,NULL,B R,NULL,1525
1426001121,373e5b4143b1795351286e311cc225df,Trial,38,0,t_bd_r_1,NULL,NULL,B R,NULL,1667
1426001121,373e5b4143b1795351286e311cc225df,Trial,35,0,t_bd_l_10,NULL,NULL,B L,NULL,1985
1426001121,373e5b4143b1795351286e311cc225df,Trial,30,0,t_bd_l_1,NULL,NULL,B L,NULL,2232
1426001121,373e5b4143b1795351286e311cc225df,Trial,40,0,t_bd_r_6,NULL,NULL,D R,NULL,2920
1426001121,373e5b4143b1795351286e311cc225df,Trial,36,0,t_bd_l_14,NULL,NULL,B R,NULL,1379
1426001121,373e5b4143b1795351286e311cc225df,Trial,37,0,t_bd_l_17,NULL,NULL,B L,NULL,1725
1426001121,373e5b4143b1795351286e311cc225df,Trial,33,0,t_bd_l_7,NULL,NULL,B L,NULL,2041
# Columns below this comment are as follows:
# 1. Time results were received.
# 2. MD5 hash of participant's IP address.
# 3. Controller name.
# 4. Item number.
# 5. Element number.
# 6. Type.
# 7. Group.
# 8. Field name.
# 9. Field value.
1426001121,373e5b4143b1795351286e311cc225df,Form,17,0,debrief,NULL,comments,a few I couldn't click on time. I heard mostly B-sounds%2C now I'm wondering if my hearing is off. 
1426001121,373e5b4143b1795351286e311cc225df,Form,17,0,debrief,NULL,_REACTION_TIME_,26120
1426001121,373e5b4143b1795351286e311cc225df,Form,18,0,exit2,NULL,randomfield,NR4h5XaE
1426001121,373e5b4143b1795351286e311cc225df,Form,18,0,exit2,NULL,worker_id,A2GZDHFD4AUBPN
1426001121,373e5b4143b1795351286e311cc225df,Form,18,0,exit2,NULL,identifier,NR4h5XaE
1426001121,373e5b4143b1795351286e311cc225df,Form,18,0,exit2,NULL,_REACTION_TIME_,41814
#
# Results on Tuesday March 10 2015 15:26:27 UTC.
# USER AGENT: Mozilla/5.0 (Windows NT 6.3; WOW64; Trident/7.0; MDDCJS; rv:11.0) like Gecko
# Design number was non-random = 1
#
# Columns below this comment are as follows:
# 1. Time results were received.
# 2. MD5 hash of participant's IP address.
# 3. Controller name.
# 4. Item number.
# 5. Element number.
# 6. Type.
# 7. Group.
# 8. Field name.
# 9. Field value.
1426001188,67b66e234415bde3d874a8e9def8c6c2,Form,2,0,intro,NULL,consentanswer,blbrdldrB L,B R,D L,D R
1426001188,67b66e234415bde3d874a8e9def8c6c2,Form,2,0,intro,NULL,_REACTION_TIME_,32077
1426001188,67b66e234415bde3d874a8e9def8c6c2,Form,3,0,questionnaire,NULL,write_something,
1426001188,67b66e234415bde3d874a8e9def8c6c2,Form,3,0,questionnaire,NULL,NatLang,eng
1426001188,67b66e234415bde3d874a8e9def8c6c2,Form,3,0,questionnaire,NULL,disorder,disorderno
1426001188,67b66e234415bde3d874a8e9def8c6c2,Form,3,0,questionnaire,NULL,_REACTION_TIME_,12106
1426001188,67b66e234415bde3d874a8e9def8c6c2,Form,4,0,headphones,NULL,headphonebrand,Sony
1426001188,67b66e234415bde3d874a8e9def8c6c2,Form,4,0,headphones,NULL,headphonemodel,HI Res%0AMDR-10R
1426001188,67b66e234415bde3d874a8e9def8c6c2,Form,4,0,headphones,NULL,headphoneyesno,headphoneyes
1426001188,67b66e234415bde3d874a8e9def8c6c2,Form,4,0,headphones,NULL,_REACTION_TIME_,252710
# Columns below this comment are as follows:
# 1. Time results were received.
# 2. MD5 hash of participant's IP address.
# 3. Controller name.
# 4. Item number.
# 5. Element number.
# 6. Type.
# 7. Group.
# 8. Question (NULL if none).
# 9. Answer.
# 10. Whether or not answer was correct (NULL if N/A).
# 11. Time taken to answer.
1426001188,67b66e234415bde3d874a8e9def8c6c2,Trial,22,0,pnt_bd_l_1,NULL,&nbsp;&nbsp;&nbsp;&nbsp;click on the sound,B L,NULL,2646
1426001188,67b66e234415bde3d874a8e9def8c6c2,Trial,24,0,pnt_bd_r_1,NULL,&nbsp;&nbsp;&nbsp;&nbsp;click on the sound,B R,NULL,2694
1426001188,67b66e234415bde3d874a8e9def8c6c2,Trial,23,0,pnt_bd_l_17,NULL,&nbsp;&nbsp;&nbsp;&nbsp;click on the sound,D L,NULL,1853
1426001188,67b66e234415bde3d874a8e9def8c6c2,Trial,25,0,pnt_bd_r_17,NULL,&nbsp;&nbsp;&nbsp;&nbsp;click on the sound,D R,NULL,1452
1426001188,67b66e234415bde3d874a8e9def8c6c2,Trial,27,0,pto_bd_l_17,NULL,&nbsp;&nbsp;&nbsp;&nbsp;click on the sound,D L,NULL,1712
1426001188,67b66e234415bde3d874a8e9def8c6c2,Trial,26,0,pto_bd_l_1,NULL,&nbsp;&nbsp;&nbsp;&nbsp;click on the sound,B L,NULL,1700
1426001188,67b66e234415bde3d874a8e9def8c6c2,Trial,28,0,pto_bd_r_1,NULL,&nbsp;&nbsp;&nbsp;&nbsp;click on the sound,B R,NULL,1363
1426001188,67b66e234415bde3d874a8e9def8c6c2,Trial,29,0,pto_bd_r_17,NULL,&nbsp;&nbsp;&nbsp;&nbsp;click on the sound,D R,NULL,1384
1426001188,67b66e234415bde3d874a8e9def8c6c2,Trial,45,0,t_bd_r_17,NULL,NULL,D R,NULL,1473
1426001188,67b66e234415bde3d874a8e9def8c6c2,Trial,43,0,t_bd_r_10,NULL,NULL,B R,NULL,2035
1426001188,67b66e234415bde3d874a8e9def8c6c2,Trial,31,0,t_bd_l_4,NULL,NULL,B L,NULL,1511
1426001188,67b66e234415bde3d874a8e9def8c6c2,Trial,33,0,t_bd_l_7,NULL,NULL,B L,NULL,1377
1426001188,67b66e234415bde3d874a8e9def8c6c2,Trial,36,0,t_bd_l_14,NULL,NULL,D L,NULL,1950
1426001188,67b66e234415bde3d874a8e9def8c6c2,Trial,44,0,t_bd_r_14,NULL,NULL,D R,NULL,1822
1426001188,67b66e234415bde3d874a8e9def8c6c2,Trial,42,0,t_bd_r_8,NULL,NULL,B R,NULL,1886
1426001188,67b66e234415bde3d874a8e9def8c6c2,Trial,41,0,t_bd_r_7,NULL,NULL,B R,NULL,1522
1426001188,67b66e234415bde3d874a8e9def8c6c2,Trial,34,0,t_bd_l_8,NULL,NULL,B L,NULL,1942
1426001188,67b66e234415bde3d874a8e9def8c6c2,Trial,39,0,t_bd_r_4,NULL,NULL,B R,NULL,1666
1426001188,67b66e234415bde3d874a8e9def8c6c2,Trial,40,0,t_bd_r_6,NULL,NULL,B R,NULL,1491
1426001188,67b66e234415bde3d874a8e9def8c6c2,Trial,37,0,t_bd_l_17,NULL,NULL,D L,NULL,1616
1426001188,67b66e234415bde3d874a8e9def8c6c2,Trial,35,0,t_bd_l_10,NULL,NULL,D L,NULL,1560
1426001188,67b66e234415bde3d874a8e9def8c6c2,Trial,38,0,t_bd_r_1,NULL,NULL,B R,NULL,1727
1426001188,67b66e234415bde3d874a8e9def8c6c2,Trial,30,0,t_bd_l_1,NULL,NULL,B L,NULL,1512
1426001188,67b66e234415bde3d874a8e9def8c6c2,Trial,32,0,t_bd_l_6,NULL,NULL,B L,NULL,1648
1426001188,67b66e234415bde3d874a8e9def8c6c2,Trial,43,0,t_bd_r_10,NULL,NULL,B R,NULL,1505
1426001188,67b66e234415bde3d874a8e9def8c6c2,Trial,31,0,t_bd_l_4,NULL,NULL,B L,NULL,1592
1426001188,67b66e234415bde3d874a8e9def8c6c2,Trial,45,0,t_bd_r_17,NULL,NULL,D R,NULL,1412
1426001188,67b66e234415bde3d874a8e9def8c6c2,Trial,41,0,t_bd_r_7,NULL,NULL,B R,NULL,1674
1426001188,67b66e234415bde3d874a8e9def8c6c2,Trial,34,0,t_bd_l_8,NULL,NULL,B L,NULL,1765
1426001188,67b66e234415bde3d874a8e9def8c6c2,Trial,39,0,t_bd_r_4,NULL,NULL,B R,NULL,1627
1426001188,67b66e234415bde3d874a8e9def8c6c2,Trial,37,0,t_bd_l_17,NULL,NULL,D L,NULL,1807
1426001188,67b66e234415bde3d874a8e9def8c6c2,Trial,36,0,t_bd_l_14,NULL,NULL,D L,NULL,1332
1426001188,67b66e234415bde3d874a8e9def8c6c2,Trial,33,0,t_bd_l_7,NULL,NULL,B R,NULL,2503
1426001188,67b66e234415bde3d874a8e9def8c6c2,Trial,30,0,t_bd_l_1,NULL,NULL,B L,NULL,2067
1426001188,67b66e234415bde3d874a8e9def8c6c2,Trial,44,0,t_bd_r_14,NULL,NULL,B R,NULL,2012
1426001188,67b66e234415bde3d874a8e9def8c6c2,Trial,32,0,t_bd_l_6,NULL,NULL,B L,NULL,2084
1426001188,67b66e234415bde3d874a8e9def8c6c2,Trial,42,0,t_bd_r_8,NULL,NULL,B R,NULL,1901
1426001188,67b66e234415bde3d874a8e9def8c6c2,Trial,40,0,t_bd_r_6,NULL,NULL,B R,NULL,1519
1426001188,67b66e234415bde3d874a8e9def8c6c2,Trial,38,0,t_bd_r_1,NULL,NULL,B R,NULL,1622
1426001188,67b66e234415bde3d874a8e9def8c6c2,Trial,35,0,t_bd_l_10,NULL,NULL,B L,NULL,1580
1426001188,67b66e234415bde3d874a8e9def8c6c2,Trial,45,0,t_bd_r_17,NULL,NULL,D R,NULL,1972
1426001188,67b66e234415bde3d874a8e9def8c6c2,Trial,39,0,t_bd_r_4,NULL,NULL,B R,NULL,1511
1426001188,67b66e234415bde3d874a8e9def8c6c2,Trial,30,0,t_bd_l_1,NULL,NULL,B L,NULL,1461
1426001188,67b66e234415bde3d874a8e9def8c6c2,Trial,35,0,t_bd_l_10,NULL,NULL,D L,NULL,1530
1426001188,67b66e234415bde3d874a8e9def8c6c2,Trial,44,0,t_bd_r_14,NULL,NULL,B R,NULL,1816
1426001188,67b66e234415bde3d874a8e9def8c6c2,Trial,36,0,t_bd_l_14,NULL,NULL,D L,NULL,1912
1426001188,67b66e234415bde3d874a8e9def8c6c2,Trial,33,0,t_bd_l_7,NULL,NULL,B L,NULL,1806
1426001188,67b66e234415bde3d874a8e9def8c6c2,Trial,31,0,t_bd_l_4,NULL,NULL,B L,NULL,2137
1426001188,67b66e234415bde3d874a8e9def8c6c2,Trial,41,0,t_bd_r_7,NULL,NULL,B R,NULL,1752
1426001188,67b66e234415bde3d874a8e9def8c6c2,Trial,38,0,t_bd_r_1,NULL,NULL,B R,NULL,2134
1426001188,67b66e234415bde3d874a8e9def8c6c2,Trial,37,0,t_bd_l_17,NULL,NULL,D L,NULL,1855
1426001188,67b66e234415bde3d874a8e9def8c6c2,Trial,32,0,t_bd_l_6,NULL,NULL,B L,NULL,1665
1426001188,67b66e234415bde3d874a8e9def8c6c2,Trial,40,0,t_bd_r_6,NULL,NULL,B R,NULL,1948
1426001188,67b66e234415bde3d874a8e9def8c6c2,Trial,42,0,t_bd_r_8,NULL,NULL,B R,NULL,1487
1426001188,67b66e234415bde3d874a8e9def8c6c2,Trial,34,0,t_bd_l_8,NULL,NULL,B L,NULL,1525
1426001188,67b66e234415bde3d874a8e9def8c6c2,Trial,43,0,t_bd_r_10,NULL,NULL,B R,NULL,1782
1426001188,67b66e234415bde3d874a8e9def8c6c2,Trial,41,0,t_bd_r_7,NULL,NULL,B R,NULL,1740
1426001188,67b66e234415bde3d874a8e9def8c6c2,Trial,42,0,t_bd_r_8,NULL,NULL,B R,NULL,2248
1426001188,67b66e234415bde3d874a8e9def8c6c2,Trial,31,0,t_bd_l_4,NULL,NULL,B L,NULL,2050
1426001188,67b66e234415bde3d874a8e9def8c6c2,Trial,33,0,t_bd_l_7,NULL,NULL,B L,NULL,1904
1426001188,67b66e234415bde3d874a8e9def8c6c2,Trial,45,0,t_bd_r_17,NULL,NULL,D R,NULL,1498
1426001188,67b66e234415bde3d874a8e9def8c6c2,Trial,43,0,t_bd_r_10,NULL,NULL,B R,NULL,1593
1426001188,67b66e234415bde3d874a8e9def8c6c2,Trial,44,0,t_bd_r_14,NULL,NULL,B R,NULL,1597
1426001188,67b66e234415bde3d874a8e9def8c6c2,Trial,38,0,t_bd_r_1,NULL,NULL,B R,NULL,1427
1426001188,67b66e234415bde3d874a8e9def8c6c2,Trial,39,0,t_bd_r_4,NULL,NULL,B R,NULL,1415
1426001188,67b66e234415bde3d874a8e9def8c6c2,Trial,32,0,t_bd_l_6,NULL,NULL,B L,NULL,1619
1426001188,67b66e234415bde3d874a8e9def8c6c2,Trial,35,0,t_bd_l_10,NULL,NULL,B L,NULL,2354
1426001188,67b66e234415bde3d874a8e9def8c6c2,Trial,30,0,t_bd_l_1,NULL,NULL,B L,NULL,1798
1426001188,67b66e234415bde3d874a8e9def8c6c2,Trial,34,0,t_bd_l_8,NULL,NULL,B L,NULL,1524
1426001188,67b66e234415bde3d874a8e9def8c6c2,Trial,36,0,t_bd_l_14,NULL,NULL,D L,NULL,1571
1426001188,67b66e234415bde3d874a8e9def8c6c2,Trial,37,0,t_bd_l_17,NULL,NULL,D L,NULL,1330
1426001188,67b66e234415bde3d874a8e9def8c6c2,Trial,40,0,t_bd_r_6,NULL,NULL,B R,NULL,1741
1426001188,67b66e234415bde3d874a8e9def8c6c2,Trial,30,0,t_bd_l_1,NULL,NULL,B L,NULL,1588
1426001188,67b66e234415bde3d874a8e9def8c6c2,Trial,39,0,t_bd_r_4,NULL,NULL,B R,NULL,1675
1426001188,67b66e234415bde3d874a8e9def8c6c2,Trial,35,0,t_bd_l_10,NULL,NULL,D L,NULL,1912
1426001188,67b66e234415bde3d874a8e9def8c6c2,Trial,31,0,t_bd_l_4,NULL,NULL,D L,NULL,2492
1426001188,67b66e234415bde3d874a8e9def8c6c2,Trial,33,0,t_bd_l_7,NULL,NULL,B L,NULL,1352
1426001188,67b66e234415bde3d874a8e9def8c6c2,Trial,40,0,t_bd_r_6,NULL,NULL,B R,NULL,1720
1426001188,67b66e234415bde3d874a8e9def8c6c2,Trial,45,0,t_bd_r_17,NULL,NULL,D R,NULL,1347
1426001188,67b66e234415bde3d874a8e9def8c6c2,Trial,42,0,t_bd_r_8,NULL,NULL,B R,NULL,1491
1426001188,67b66e234415bde3d874a8e9def8c6c2,Trial,32,0,t_bd_l_6,NULL,NULL,B L,NULL,1908
1426001188,67b66e234415bde3d874a8e9def8c6c2,Trial,37,0,t_bd_l_17,NULL,NULL,D L,NULL,1324
1426001188,67b66e234415bde3d874a8e9def8c6c2,Trial,41,0,t_bd_r_7,NULL,NULL,B R,NULL,1564
1426001188,67b66e234415bde3d874a8e9def8c6c2,Trial,43,0,t_bd_r_10,NULL,NULL,B R,NULL,1452
1426001188,67b66e234415bde3d874a8e9def8c6c2,Trial,44,0,t_bd_r_14,NULL,NULL,B R,NULL,1614
1426001188,67b66e234415bde3d874a8e9def8c6c2,Trial,38,0,t_bd_r_1,NULL,NULL,B R,NULL,1430
1426001188,67b66e234415bde3d874a8e9def8c6c2,Trial,34,0,t_bd_l_8,NULL,NULL,B L,NULL,1799
1426001188,67b66e234415bde3d874a8e9def8c6c2,Trial,36,0,t_bd_l_14,NULL,NULL,D L,NULL,1468
1426001188,67b66e234415bde3d874a8e9def8c6c2,Trial,45,0,t_bd_r_17,NULL,NULL,D R,NULL,2303
1426001188,67b66e234415bde3d874a8e9def8c6c2,Trial,34,0,t_bd_l_8,NULL,NULL,B L,NULL,1781
1426001188,67b66e234415bde3d874a8e9def8c6c2,Trial,44,0,t_bd_r_14,NULL,NULL,D R,NULL,2344
1426001188,67b66e234415bde3d874a8e9def8c6c2,Trial,32,0,t_bd_l_6,NULL,NULL,B L,NULL,1840
1426001188,67b66e234415bde3d874a8e9def8c6c2,Trial,33,0,t_bd_l_7,NULL,NULL,B L,NULL,1579
1426001188,67b66e234415bde3d874a8e9def8c6c2,Trial,42,0,t_bd_r_8,NULL,NULL,B R,NULL,1723
1426001188,67b66e234415bde3d874a8e9def8c6c2,Trial,43,0,t_bd_r_10,NULL,NULL,B R,NULL,1754
1426001188,67b66e234415bde3d874a8e9def8c6c2,Trial,41,0,t_bd_r_7,NULL,NULL,B R,NULL,2152
1426001188,67b66e234415bde3d874a8e9def8c6c2,Trial,38,0,t_bd_r_1,NULL,NULL,B R,NULL,1638
1426001188,67b66e234415bde3d874a8e9def8c6c2,Trial,36,0,t_bd_l_14,NULL,NULL,D L,NULL,1666
1426001188,67b66e234415bde3d874a8e9def8c6c2,Trial,31,0,t_bd_l_4,NULL,NULL,B L,NULL,1597
1426001188,67b66e234415bde3d874a8e9def8c6c2,Trial,35,0,t_bd_l_10,NULL,NULL,B L,NULL,1647
1426001188,67b66e234415bde3d874a8e9def8c6c2,Trial,30,0,t_bd_l_1,NULL,NULL,B L,NULL,1456
1426001188,67b66e234415bde3d874a8e9def8c6c2,Trial,40,0,t_bd_r_6,NULL,NULL,B R,NULL,1593
1426001188,67b66e234415bde3d874a8e9def8c6c2,Trial,39,0,t_bd_r_4,NULL,NULL,B R,NULL,1582
1426001188,67b66e234415bde3d874a8e9def8c6c2,Trial,37,0,t_bd_l_17,NULL,NULL,D L,NULL,1591
1426001188,67b66e234415bde3d874a8e9def8c6c2,Trial,31,0,t_bd_l_4,NULL,NULL,B L,NULL,2200
1426001188,67b66e234415bde3d874a8e9def8c6c2,Trial,45,0,t_bd_r_17,NULL,NULL,D R,NULL,1862
1426001188,67b66e234415bde3d874a8e9def8c6c2,Trial,38,0,t_bd_r_1,NULL,NULL,B R,NULL,1533
1426001188,67b66e234415bde3d874a8e9def8c6c2,Trial,36,0,t_bd_l_14,NULL,NULL,D L,NULL,1545
1426001188,67b66e234415bde3d874a8e9def8c6c2,Trial,33,0,t_bd_l_7,NULL,NULL,B L,NULL,1696
1426001188,67b66e234415bde3d874a8e9def8c6c2,Trial,43,0,t_bd_r_10,NULL,NULL,B R,NULL,1672
1426001188,67b66e234415bde3d874a8e9def8c6c2,Trial,41,0,t_bd_r_7,NULL,NULL,B R,NULL,1570
1426001188,67b66e234415bde3d874a8e9def8c6c2,Trial,32,0,t_bd_l_6,NULL,NULL,B L,NULL,1977
1426001188,67b66e234415bde3d874a8e9def8c6c2,Trial,42,0,t_bd_r_8,NULL,NULL,B R,NULL,1634
1426001188,67b66e234415bde3d874a8e9def8c6c2,Trial,35,0,t_bd_l_10,NULL,NULL,D L,NULL,2082
1426001188,67b66e234415bde3d874a8e9def8c6c2,Trial,34,0,t_bd_l_8,NULL,NULL,B L,NULL,1785
1426001188,67b66e234415bde3d874a8e9def8c6c2,Trial,30,0,t_bd_l_1,NULL,NULL,B L,NULL,1522
1426001188,67b66e234415bde3d874a8e9def8c6c2,Trial,40,0,t_bd_r_6,NULL,NULL,B R,NULL,1542
1426001188,67b66e234415bde3d874a8e9def8c6c2,Trial,39,0,t_bd_r_4,NULL,NULL,B R,NULL,1554
1426001188,67b66e234415bde3d874a8e9def8c6c2,Trial,37,0,t_bd_l_17,NULL,NULL,D L,NULL,1799
1426001188,67b66e234415bde3d874a8e9def8c6c2,Trial,44,0,t_bd_r_14,NULL,NULL,D R,NULL,3221
1426001188,67b66e234415bde3d874a8e9def8c6c2,Trial,42,0,t_bd_r_8,NULL,NULL,B R,NULL,1538
1426001188,67b66e234415bde3d874a8e9def8c6c2,Trial,34,0,t_bd_l_8,NULL,NULL,B L,NULL,1541
1426001188,67b66e234415bde3d874a8e9def8c6c2,Trial,44,0,t_bd_r_14,NULL,NULL,D R,NULL,3219
1426001188,67b66e234415bde3d874a8e9def8c6c2,Trial,38,0,t_bd_r_1,NULL,NULL,B R,NULL,1425
1426001188,67b66e234415bde3d874a8e9def8c6c2,Trial,37,0,t_bd_l_17,NULL,NULL,D L,NULL,1445
1426001188,67b66e234415bde3d874a8e9def8c6c2,Trial,40,0,t_bd_r_6,NULL,NULL,B R,NULL,1633
1426001188,67b66e234415bde3d874a8e9def8c6c2,Trial,36,0,t_bd_l_14,NULL,NULL,D L,NULL,1693
1426001188,67b66e234415bde3d874a8e9def8c6c2,Trial,32,0,t_bd_l_6,NULL,NULL,B R,NULL,1842
1426001188,67b66e234415bde3d874a8e9def8c6c2,Trial,43,0,t_bd_r_10,NULL,NULL,B R,NULL,1666
1426001188,67b66e234415bde3d874a8e9def8c6c2,Trial,39,0,t_bd_r_4,NULL,NULL,B R,NULL,1500
1426001188,67b66e234415bde3d874a8e9def8c6c2,Trial,30,0,t_bd_l_1,NULL,NULL,B L,NULL,1646
1426001188,67b66e234415bde3d874a8e9def8c6c2,Trial,41,0,t_bd_r_7,NULL,NULL,B R,NULL,1672
1426001188,67b66e234415bde3d874a8e9def8c6c2,Trial,35,0,t_bd_l_10,NULL,NULL,D L,NULL,1826
1426001188,67b66e234415bde3d874a8e9def8c6c2,Trial,31,0,t_bd_l_4,NULL,NULL,B L,NULL,1887
1426001188,67b66e234415bde3d874a8e9def8c6c2,Trial,45,0,t_bd_r_17,NULL,NULL,D R,NULL,1574
1426001188,67b66e234415bde3d874a8e9def8c6c2,Trial,33,0,t_bd_l_7,NULL,NULL,B L,NULL,1587
# Columns below this comment are as follows:
# 1. Time results were received.
# 2. MD5 hash of participant's IP address.
# 3. Controller name.
# 4. Item number.
# 5. Element number.
# 6. Type.
# 7. Group.
# 8. Field name.
# 9. Field value.
1426001188,67b66e234415bde3d874a8e9def8c6c2,Form,17,0,debrief,NULL,comments,It was fun.
1426001188,67b66e234415bde3d874a8e9def8c6c2,Form,17,0,debrief,NULL,_REACTION_TIME_,8163
1426001188,67b66e234415bde3d874a8e9def8c6c2,Form,18,0,exit2,NULL,randomfield,v4TxyhR7
1426001188,67b66e234415bde3d874a8e9def8c6c2,Form,18,0,exit2,NULL,worker_id, A34YD9P7KI4RF
1426001188,67b66e234415bde3d874a8e9def8c6c2,Form,18,0,exit2,NULL,identifier,v4TxyhR7
1426001188,67b66e234415bde3d874a8e9def8c6c2,Form,18,0,exit2,NULL,_REACTION_TIME_,47361
#
# Results on Tuesday March 10 2015 15:27:11 UTC.
# USER AGENT: Mozilla/5.0 (Windows NT 6.1; WOW64; rv:36.0) Gecko/20100101 Firefox/36.0
# Design number was non-random = 1
#
# Columns below this comment are as follows:
# 1. Time results were received.
# 2. MD5 hash of participant's IP address.
# 3. Controller name.
# 4. Item number.
# 5. Element number.
# 6. Type.
# 7. Group.
# 8. Field name.
# 9. Field value.
1426001231,415b96065e2a760f0afccc40d4bc6c26,Form,2,0,intro,NULL,consentanswer,brdlbldrB R,D L,B L,D R
1426001231,415b96065e2a760f0afccc40d4bc6c26,Form,2,0,intro,NULL,_REACTION_TIME_,31071
1426001231,415b96065e2a760f0afccc40d4bc6c26,Form,3,0,questionnaire,NULL,write_something,
1426001231,415b96065e2a760f0afccc40d4bc6c26,Form,3,0,questionnaire,NULL,NatLang,eng
1426001231,415b96065e2a760f0afccc40d4bc6c26,Form,3,0,questionnaire,NULL,disorder,disorderno
1426001231,415b96065e2a760f0afccc40d4bc6c26,Form,3,0,questionnaire,NULL,_REACTION_TIME_,14675
1426001231,415b96065e2a760f0afccc40d4bc6c26,Form,4,0,headphones,NULL,headphonebrand,Sennheiser
1426001231,415b96065e2a760f0afccc40d4bc6c26,Form,4,0,headphones,NULL,headphonemodel,HD 201
1426001231,415b96065e2a760f0afccc40d4bc6c26,Form,4,0,headphones,NULL,headphoneyesno,headphoneyes
1426001231,415b96065e2a760f0afccc40d4bc6c26,Form,4,0,headphones,NULL,_REACTION_TIME_,31120
# Columns below this comment are as follows:
# 1. Time results were received.
# 2. MD5 hash of participant's IP address.
# 3. Controller name.
# 4. Item number.
# 5. Element number.
# 6. Type.
# 7. Group.
# 8. Question (NULL if none).
# 9. Answer.
# 10. Whether or not answer was correct (NULL if N/A).
# 11. Time taken to answer.
1426001231,415b96065e2a760f0afccc40d4bc6c26,Trial,24,0,pnt_bd_r_1,NULL,&nbsp;&nbsp;&nbsp;&nbsp;click on the sound,B R,NULL,6363
1426001231,415b96065e2a760f0afccc40d4bc6c26,Trial,25,0,pnt_bd_r_17,NULL,&nbsp;&nbsp;&nbsp;&nbsp;click on the sound,D R,NULL,2319
1426001231,415b96065e2a760f0afccc40d4bc6c26,Trial,22,0,pnt_bd_l_1,NULL,&nbsp;&nbsp;&nbsp;&nbsp;click on the sound,B L,NULL,1930
1426001231,415b96065e2a760f0afccc40d4bc6c26,Trial,23,0,pnt_bd_l_17,NULL,&nbsp;&nbsp;&nbsp;&nbsp;click on the sound,D L,NULL,1575
1426001231,415b96065e2a760f0afccc40d4bc6c26,Trial,27,0,pto_bd_l_17,NULL,&nbsp;&nbsp;&nbsp;&nbsp;click on the sound,D L,NULL,1151
1426001231,415b96065e2a760f0afccc40d4bc6c26,Trial,26,0,pto_bd_l_1,NULL,&nbsp;&nbsp;&nbsp;&nbsp;click on the sound,B L,NULL,1288
1426001231,415b96065e2a760f0afccc40d4bc6c26,Trial,29,0,pto_bd_r_17,NULL,&nbsp;&nbsp;&nbsp;&nbsp;click on the sound,D R,NULL,1282
1426001231,415b96065e2a760f0afccc40d4bc6c26,Trial,28,0,pto_bd_r_1,NULL,&nbsp;&nbsp;&nbsp;&nbsp;click on the sound,B R,NULL,1159
1426001231,415b96065e2a760f0afccc40d4bc6c26,Trial,44,0,t_bd_r_14,NULL,NULL,D R,NULL,2336
1426001231,415b96065e2a760f0afccc40d4bc6c26,Trial,35,0,t_bd_l_10,NULL,NULL,B L,NULL,1481
1426001231,415b96065e2a760f0afccc40d4bc6c26,Trial,40,0,t_bd_r_6,NULL,NULL,B R,NULL,3063
1426001231,415b96065e2a760f0afccc40d4bc6c26,Trial,33,0,t_bd_l_7,NULL,NULL,B L,NULL,1698
1426001231,415b96065e2a760f0afccc40d4bc6c26,Trial,45,0,t_bd_r_17,NULL,NULL,NULL,NULL,3701
1426001231,415b96065e2a760f0afccc40d4bc6c26,Trial,41,0,t_bd_r_7,NULL,NULL,B L,NULL,2166
1426001231,415b96065e2a760f0afccc40d4bc6c26,Trial,37,0,t_bd_l_17,NULL,NULL,D L,NULL,1886
1426001231,415b96065e2a760f0afccc40d4bc6c26,Trial,43,0,t_bd_r_10,NULL,NULL,B R,NULL,2252
1426001231,415b96065e2a760f0afccc40d4bc6c26,Trial,36,0,t_bd_l_14,NULL,NULL,D L,NULL,1774
1426001231,415b96065e2a760f0afccc40d4bc6c26,Trial,39,0,t_bd_r_4,NULL,NULL,B R,NULL,1963
1426001231,415b96065e2a760f0afccc40d4bc6c26,Trial,32,0,t_bd_l_6,NULL,NULL,B L,NULL,1412
1426001231,415b96065e2a760f0afccc40d4bc6c26,Trial,31,0,t_bd_l_4,NULL,NULL,B L,NULL,1195
1426001231,415b96065e2a760f0afccc40d4bc6c26,Trial,38,0,t_bd_r_1,NULL,NULL,B R,NULL,1486
1426001231,415b96065e2a760f0afccc40d4bc6c26,Trial,34,0,t_bd_l_8,NULL,NULL,B L,NULL,1703
1426001231,415b96065e2a760f0afccc40d4bc6c26,Trial,42,0,t_bd_r_8,NULL,NULL,B R,NULL,1511
1426001231,415b96065e2a760f0afccc40d4bc6c26,Trial,30,0,t_bd_l_1,NULL,NULL,B L,NULL,1324
1426001231,415b96065e2a760f0afccc40d4bc6c26,Trial,43,0,t_bd_r_10,NULL,NULL,B R,NULL,1724
1426001231,415b96065e2a760f0afccc40d4bc6c26,Trial,37,0,t_bd_l_17,NULL,NULL,D L,NULL,1350
1426001231,415b96065e2a760f0afccc40d4bc6c26,Trial,40,0,t_bd_r_6,NULL,NULL,B R,NULL,1310
1426001231,415b96065e2a760f0afccc40d4bc6c26,Trial,39,0,t_bd_r_4,NULL,NULL,B R,NULL,1151
1426001231,415b96065e2a760f0afccc40d4bc6c26,Trial,45,0,t_bd_r_17,NULL,NULL,D R,NULL,2086
1426001231,415b96065e2a760f0afccc40d4bc6c26,Trial,30,0,t_bd_l_1,NULL,NULL,B L,NULL,1369
1426001231,415b96065e2a760f0afccc40d4bc6c26,Trial,31,0,t_bd_l_4,NULL,NULL,B L,NULL,1150
1426001231,415b96065e2a760f0afccc40d4bc6c26,Trial,35,0,t_bd_l_10,NULL,NULL,B L,NULL,1197
1426001231,415b96065e2a760f0afccc40d4bc6c26,Trial,34,0,t_bd_l_8,NULL,NULL,B L,NULL,983
1426001231,415b96065e2a760f0afccc40d4bc6c26,Trial,38,0,t_bd_r_1,NULL,NULL,B R,NULL,1504
1426001231,415b96065e2a760f0afccc40d4bc6c26,Trial,41,0,t_bd_r_7,NULL,NULL,B R,NULL,1273
1426001231,415b96065e2a760f0afccc40d4bc6c26,Trial,33,0,t_bd_l_7,NULL,NULL,B L,NULL,1409
1426001231,415b96065e2a760f0afccc40d4bc6c26,Trial,42,0,t_bd_r_8,NULL,NULL,B R,NULL,1276
1426001231,415b96065e2a760f0afccc40d4bc6c26,Trial,36,0,t_bd_l_14,NULL,NULL,D L,NULL,1526
1426001231,415b96065e2a760f0afccc40d4bc6c26,Trial,44,0,t_bd_r_14,NULL,NULL,B R,NULL,2054
1426001231,415b96065e2a760f0afccc40d4bc6c26,Trial,32,0,t_bd_l_6,NULL,NULL,B L,NULL,1483
1426001231,415b96065e2a760f0afccc40d4bc6c26,Trial,43,0,t_bd_r_10,NULL,NULL,B L,NULL,2413
1426001231,415b96065e2a760f0afccc40d4bc6c26,Trial,39,0,t_bd_r_4,NULL,NULL,B R,NULL,1163
1426001231,415b96065e2a760f0afccc40d4bc6c26,Trial,45,0,t_bd_r_17,NULL,NULL,D L,NULL,1874
1426001231,415b96065e2a760f0afccc40d4bc6c26,Trial,37,0,t_bd_l_17,NULL,NULL,D L,NULL,1725
1426001231,415b96065e2a760f0afccc40d4bc6c26,Trial,35,0,t_bd_l_10,NULL,NULL,D L,NULL,1228
1426001231,415b96065e2a760f0afccc40d4bc6c26,Trial,42,0,t_bd_r_8,NULL,NULL,B R,NULL,1561
1426001231,415b96065e2a760f0afccc40d4bc6c26,Trial,32,0,t_bd_l_6,NULL,NULL,B L,NULL,1773
1426001231,415b96065e2a760f0afccc40d4bc6c26,Trial,44,0,t_bd_r_14,NULL,NULL,B R,NULL,1399
1426001231,415b96065e2a760f0afccc40d4bc6c26,Trial,41,0,t_bd_r_7,NULL,NULL,B R,NULL,1361
1426001231,415b96065e2a760f0afccc40d4bc6c26,Trial,30,0,t_bd_l_1,NULL,NULL,B L,NULL,1548
1426001231,415b96065e2a760f0afccc40d4bc6c26,Trial,34,0,t_bd_l_8,NULL,NULL,B L,NULL,1523
1426001231,415b96065e2a760f0afccc40d4bc6c26,Trial,38,0,t_bd_r_1,NULL,NULL,B R,NULL,1316
1426001231,415b96065e2a760f0afccc40d4bc6c26,Trial,31,0,t_bd_l_4,NULL,NULL,B L,NULL,1417
1426001231,415b96065e2a760f0afccc40d4bc6c26,Trial,36,0,t_bd_l_14,NULL,NULL,D L,NULL,1305
1426001231,415b96065e2a760f0afccc40d4bc6c26,Trial,40,0,t_bd_r_6,NULL,NULL,B R,NULL,1164
1426001231,415b96065e2a760f0afccc40d4bc6c26,Trial,33,0,t_bd_l_7,NULL,NULL,B L,NULL,1489
1426001231,415b96065e2a760f0afccc40d4bc6c26,Trial,43,0,t_bd_r_10,NULL,NULL,B R,NULL,1145
1426001231,415b96065e2a760f0afccc40d4bc6c26,Trial,31,0,t_bd_l_4,NULL,NULL,B L,NULL,1298
1426001231,415b96065e2a760f0afccc40d4bc6c26,Trial,36,0,t_bd_l_14,NULL,NULL,D L,NULL,1288
1426001231,415b96065e2a760f0afccc40d4bc6c26,Trial,33,0,t_bd_l_7,NULL,NULL,B L,NULL,1419
1426001231,415b96065e2a760f0afccc40d4bc6c26,Trial,40,0,t_bd_r_6,NULL,NULL,B R,NULL,1102
1426001231,415b96065e2a760f0afccc40d4bc6c26,Trial,35,0,t_bd_l_10,NULL,NULL,B L,NULL,2834
1426001231,415b96065e2a760f0afccc40d4bc6c26,Trial,38,0,t_bd_r_1,NULL,NULL,B R,NULL,1396
1426001231,415b96065e2a760f0afccc40d4bc6c26,Trial,42,0,t_bd_r_8,NULL,NULL,B R,NULL,993
1426001231,415b96065e2a760f0afccc40d4bc6c26,Trial,41,0,t_bd_r_7,NULL,NULL,B R,NULL,883
1426001231,415b96065e2a760f0afccc40d4bc6c26,Trial,32,0,t_bd_l_6,NULL,NULL,B L,NULL,1661
1426001231,415b96065e2a760f0afccc40d4bc6c26,Trial,45,0,t_bd_r_17,NULL,NULL,D R,NULL,1635
1426001231,415b96065e2a760f0afccc40d4bc6c26,Trial,39,0,t_bd_r_4,NULL,NULL,B R,NULL,1325
1426001231,415b96065e2a760f0afccc40d4bc6c26,Trial,34,0,t_bd_l_8,NULL,NULL,B L,NULL,2055
1426001231,415b96065e2a760f0afccc40d4bc6c26,Trial,44,0,t_bd_r_14,NULL,NULL,B R,NULL,1352
1426001231,415b96065e2a760f0afccc40d4bc6c26,Trial,30,0,t_bd_l_1,NULL,NULL,B L,NULL,1401
1426001231,415b96065e2a760f0afccc40d4bc6c26,Trial,37,0,t_bd_l_17,NULL,NULL,D L,NULL,1476
1426001231,415b96065e2a760f0afccc40d4bc6c26,Trial,44,0,t_bd_r_14,NULL,NULL,B R,NULL,1239
1426001231,415b96065e2a760f0afccc40d4bc6c26,Trial,31,0,t_bd_l_4,NULL,NULL,B L,NULL,1319
1426001231,415b96065e2a760f0afccc40d4bc6c26,Trial,43,0,t_bd_r_10,NULL,NULL,B R,NULL,1204
1426001231,415b96065e2a760f0afccc40d4bc6c26,Trial,42,0,t_bd_r_8,NULL,NULL,B R,NULL,1066
1426001231,415b96065e2a760f0afccc40d4bc6c26,Trial,35,0,t_bd_l_10,NULL,NULL,D L,NULL,1863
1426001231,415b96065e2a760f0afccc40d4bc6c26,Trial,45,0,t_bd_r_17,NULL,NULL,D R,NULL,1261
1426001231,415b96065e2a760f0afccc40d4bc6c26,Trial,39,0,t_bd_r_4,NULL,NULL,B R,NULL,1082
1426001231,415b96065e2a760f0afccc40d4bc6c26,Trial,32,0,t_bd_l_6,NULL,NULL,B L,NULL,1274
1426001231,415b96065e2a760f0afccc40d4bc6c26,Trial,33,0,t_bd_l_7,NULL,NULL,B L,NULL,1139
1426001231,415b96065e2a760f0afccc40d4bc6c26,Trial,30,0,t_bd_l_1,NULL,NULL,B L,NULL,872
1426001231,415b96065e2a760f0afccc40d4bc6c26,Trial,37,0,t_bd_l_17,NULL,NULL,D L,NULL,1356
1426001231,415b96065e2a760f0afccc40d4bc6c26,Trial,38,0,t_bd_r_1,NULL,NULL,B R,NULL,1113
1426001231,415b96065e2a760f0afccc40d4bc6c26,Trial,36,0,t_bd_l_14,NULL,NULL,D L,NULL,1388
1426001231,415b96065e2a760f0afccc40d4bc6c26,Trial,41,0,t_bd_r_7,NULL,NULL,B R,NULL,1222
1426001231,415b96065e2a760f0afccc40d4bc6c26,Trial,34,0,t_bd_l_8,NULL,NULL,D L,NULL,1762
1426001231,415b96065e2a760f0afccc40d4bc6c26,Trial,40,0,t_bd_r_6,NULL,NULL,B R,NULL,1340
1426001231,415b96065e2a760f0afccc40d4bc6c26,Trial,36,0,t_bd_l_14,NULL,NULL,D L,NULL,1323
1426001231,415b96065e2a760f0afccc40d4bc6c26,Trial,45,0,t_bd_r_17,NULL,NULL,D R,NULL,1298
1426001231,415b96065e2a760f0afccc40d4bc6c26,Trial,35,0,t_bd_l_10,NULL,NULL,D R,NULL,1325
1426001231,415b96065e2a760f0afccc40d4bc6c26,Trial,30,0,t_bd_l_1,NULL,NULL,B L,NULL,1442
1426001231,415b96065e2a760f0afccc40d4bc6c26,Trial,38,0,t_bd_r_1,NULL,NULL,B R,NULL,1284
1426001231,415b96065e2a760f0afccc40d4bc6c26,Trial,42,0,t_bd_r_8,NULL,NULL,B R,NULL,1183
1426001231,415b96065e2a760f0afccc40d4bc6c26,Trial,32,0,t_bd_l_6,NULL,NULL,B L,NULL,1467
1426001231,415b96065e2a760f0afccc40d4bc6c26,Trial,39,0,t_bd_r_4,NULL,NULL,B R,NULL,1124
1426001231,415b96065e2a760f0afccc40d4bc6c26,Trial,40,0,t_bd_r_6,NULL,NULL,B R,NULL,1158
1426001231,415b96065e2a760f0afccc40d4bc6c26,Trial,43,0,t_bd_r_10,NULL,NULL,B R,NULL,853
1426001231,415b96065e2a760f0afccc40d4bc6c26,Trial,31,0,t_bd_l_4,NULL,NULL,B L,NULL,1483
1426001231,415b96065e2a760f0afccc40d4bc6c26,Trial,33,0,t_bd_l_7,NULL,NULL,B L,NULL,1355
1426001231,415b96065e2a760f0afccc40d4bc6c26,Trial,37,0,t_bd_l_17,NULL,NULL,D R,NULL,1778
1426001231,415b96065e2a760f0afccc40d4bc6c26,Trial,34,0,t_bd_l_8,NULL,NULL,D R,NULL,1637
1426001231,415b96065e2a760f0afccc40d4bc6c26,Trial,44,0,t_bd_r_14,NULL,NULL,D R,NULL,1830
1426001231,415b96065e2a760f0afccc40d4bc6c26,Trial,41,0,t_bd_r_7,NULL,NULL,B R,NULL,1250
1426001231,415b96065e2a760f0afccc40d4bc6c26,Trial,45,0,t_bd_r_17,NULL,NULL,D R,NULL,1508
1426001231,415b96065e2a760f0afccc40d4bc6c26,Trial,37,0,t_bd_l_17,NULL,NULL,D L,NULL,2283
1426001231,415b96065e2a760f0afccc40d4bc6c26,Trial,40,0,t_bd_r_6,NULL,NULL,B R,NULL,1479
1426001231,415b96065e2a760f0afccc40d4bc6c26,Trial,35,0,t_bd_l_10,NULL,NULL,D L,NULL,2199
1426001231,415b96065e2a760f0afccc40d4bc6c26,Trial,36,0,t_bd_l_14,NULL,NULL,D L,NULL,1897
1426001231,415b96065e2a760f0afccc40d4bc6c26,Trial,39,0,t_bd_r_4,NULL,NULL,B R,NULL,1381
1426001231,415b96065e2a760f0afccc40d4bc6c26,Trial,31,0,t_bd_l_4,NULL,NULL,D L,NULL,1650
1426001231,415b96065e2a760f0afccc40d4bc6c26,Trial,42,0,t_bd_r_8,NULL,NULL,B R,NULL,1298
1426001231,415b96065e2a760f0afccc40d4bc6c26,Trial,38,0,t_bd_r_1,NULL,NULL,B R,NULL,882
1426001231,415b96065e2a760f0afccc40d4bc6c26,Trial,41,0,t_bd_r_7,NULL,NULL,B R,NULL,833
1426001231,415b96065e2a760f0afccc40d4bc6c26,Trial,32,0,t_bd_l_6,NULL,NULL,D L,NULL,2638
1426001231,415b96065e2a760f0afccc40d4bc6c26,Trial,44,0,t_bd_r_14,NULL,NULL,B R,NULL,1136
1426001231,415b96065e2a760f0afccc40d4bc6c26,Trial,34,0,t_bd_l_8,NULL,NULL,B L,NULL,1787
1426001231,415b96065e2a760f0afccc40d4bc6c26,Trial,43,0,t_bd_r_10,NULL,NULL,B R,NULL,1038
1426001231,415b96065e2a760f0afccc40d4bc6c26,Trial,33,0,t_bd_l_7,NULL,NULL,B L,NULL,1533
1426001231,415b96065e2a760f0afccc40d4bc6c26,Trial,30,0,t_bd_l_1,NULL,NULL,B L,NULL,1078
1426001231,415b96065e2a760f0afccc40d4bc6c26,Trial,34,0,t_bd_l_8,NULL,NULL,D L,NULL,2177
1426001231,415b96065e2a760f0afccc40d4bc6c26,Trial,40,0,t_bd_r_6,NULL,NULL,B R,NULL,1054
1426001231,415b96065e2a760f0afccc40d4bc6c26,Trial,39,0,t_bd_r_4,NULL,NULL,B R,NULL,830
1426001231,415b96065e2a760f0afccc40d4bc6c26,Trial,44,0,t_bd_r_14,NULL,NULL,B R,NULL,1519
1426001231,415b96065e2a760f0afccc40d4bc6c26,Trial,31,0,t_bd_l_4,NULL,NULL,B L,NULL,1977
1426001231,415b96065e2a760f0afccc40d4bc6c26,Trial,38,0,t_bd_r_1,NULL,NULL,B R,NULL,1264
1426001231,415b96065e2a760f0afccc40d4bc6c26,Trial,32,0,t_bd_l_6,NULL,NULL,B L,NULL,1764
1426001231,415b96065e2a760f0afccc40d4bc6c26,Trial,42,0,t_bd_r_8,NULL,NULL,B R,NULL,1166
1426001231,415b96065e2a760f0afccc40d4bc6c26,Trial,33,0,t_bd_l_7,NULL,NULL,B L,NULL,1320
1426001231,415b96065e2a760f0afccc40d4bc6c26,Trial,36,0,t_bd_l_14,NULL,NULL,B L,NULL,1188
1426001231,415b96065e2a760f0afccc40d4bc6c26,Trial,37,0,t_bd_l_17,NULL,NULL,D L,NULL,1244
1426001231,415b96065e2a760f0afccc40d4bc6c26,Trial,41,0,t_bd_r_7,NULL,NULL,B R,NULL,1243
1426001231,415b96065e2a760f0afccc40d4bc6c26,Trial,30,0,t_bd_l_1,NULL,NULL,B L,NULL,2201
1426001231,415b96065e2a760f0afccc40d4bc6c26,Trial,43,0,t_bd_r_10,NULL,NULL,B R,NULL,1094
1426001231,415b96065e2a760f0afccc40d4bc6c26,Trial,35,0,t_bd_l_10,NULL,NULL,D R,NULL,2529
1426001231,415b96065e2a760f0afccc40d4bc6c26,Trial,45,0,t_bd_r_17,NULL,NULL,D R,NULL,2107
# Columns below this comment are as follows:
# 1. Time results were received.
# 2. MD5 hash of participant's IP address.
# 3. Controller name.
# 4. Item number.
# 5. Element number.
# 6. Type.
# 7. Group.
# 8. Field name.
# 9. Field value.
1426001231,415b96065e2a760f0afccc40d4bc6c26,Form,17,0,debrief,NULL,comments,
1426001231,415b96065e2a760f0afccc40d4bc6c26,Form,17,0,debrief,NULL,_REACTION_TIME_,5758
1426001231,415b96065e2a760f0afccc40d4bc6c26,Form,18,0,exit2,NULL,randomfield,edp55zoi
1426001231,415b96065e2a760f0afccc40d4bc6c26,Form,18,0,exit2,NULL,worker_id,A3CWYWKQXX4RIZ
1426001231,415b96065e2a760f0afccc40d4bc6c26,Form,18,0,exit2,NULL,identifier,edp55zoi
1426001231,415b96065e2a760f0afccc40d4bc6c26,Form,18,0,exit2,NULL,_REACTION_TIME_,59570
#
# Results on Tuesday March 10 2015 15:27:49 UTC.
# USER AGENT: Mozilla/5.0 (Windows NT 6.3; WOW64) AppleWebKit/537.36 (KHTML, like Gecko) Chrome/40.0.2214.115 Safari/537.36
# Design number was non-random = 1
#
# Columns below this comment are as follows:
# 1. Time results were received.
# 2. MD5 hash of participant's IP address.
# 3. Controller name.
# 4. Item number.
# 5. Element number.
# 6. Type.
# 7. Group.
# 8. Field name.
# 9. Field value.
1426001270,bf215827e8d093e97d95aa6d9404c268,Form,2,0,intro,NULL,consentanswer,brdldrblB R,D L,D R,B L
1426001270,bf215827e8d093e97d95aa6d9404c268,Form,2,0,intro,NULL,_REACTION_TIME_,9944
1426001270,bf215827e8d093e97d95aa6d9404c268,Form,3,0,questionnaire,NULL,write_something,
1426001270,bf215827e8d093e97d95aa6d9404c268,Form,3,0,questionnaire,NULL,NatLang,eng
1426001270,bf215827e8d093e97d95aa6d9404c268,Form,3,0,questionnaire,NULL,disorder,disorderno
1426001270,bf215827e8d093e97d95aa6d9404c268,Form,3,0,questionnaire,NULL,_REACTION_TIME_,7165
1426001270,bf215827e8d093e97d95aa6d9404c268,Form,4,0,headphones,NULL,headphonebrand,Sony
1426001270,bf215827e8d093e97d95aa6d9404c268,Form,4,0,headphones,NULL,headphonemodel,Stereo Headphones MDREX15LP/BC(UC)
1426001270,bf215827e8d093e97d95aa6d9404c268,Form,4,0,headphones,NULL,headphoneyesno,headphoneyes
1426001270,bf215827e8d093e97d95aa6d9404c268,Form,4,0,headphones,NULL,_REACTION_TIME_,123335
# Columns below this comment are as follows:
# 1. Time results were received.
# 2. MD5 hash of participant's IP address.
# 3. Controller name.
# 4. Item number.
# 5. Element number.
# 6. Type.
# 7. Group.
# 8. Question (NULL if none).
# 9. Answer.
# 10. Whether or not answer was correct (NULL if N/A).
# 11. Time taken to answer.
1426001270,bf215827e8d093e97d95aa6d9404c268,Trial,22,0,pnt_bd_l_1,NULL,&nbsp;&nbsp;&nbsp;&nbsp;click on the sound,B L,NULL,2533
1426001270,bf215827e8d093e97d95aa6d9404c268,Trial,24,0,pnt_bd_r_1,NULL,&nbsp;&nbsp;&nbsp;&nbsp;click on the sound,B R,NULL,1382
1426001270,bf215827e8d093e97d95aa6d9404c268,Trial,25,0,pnt_bd_r_17,NULL,&nbsp;&nbsp;&nbsp;&nbsp;click on the sound,D L,NULL,2616
1426001270,bf215827e8d093e97d95aa6d9404c268,Trial,23,0,pnt_bd_l_17,NULL,&nbsp;&nbsp;&nbsp;&nbsp;click on the sound,D L,NULL,1320
1426001270,bf215827e8d093e97d95aa6d9404c268,Trial,27,0,pto_bd_l_17,NULL,&nbsp;&nbsp;&nbsp;&nbsp;click on the sound,D L,NULL,1584
1426001270,bf215827e8d093e97d95aa6d9404c268,Trial,29,0,pto_bd_r_17,NULL,&nbsp;&nbsp;&nbsp;&nbsp;click on the sound,D R,NULL,1116
1426001270,bf215827e8d093e97d95aa6d9404c268,Trial,26,0,pto_bd_l_1,NULL,&nbsp;&nbsp;&nbsp;&nbsp;click on the sound,B L,NULL,1028
1426001270,bf215827e8d093e97d95aa6d9404c268,Trial,28,0,pto_bd_r_1,NULL,&nbsp;&nbsp;&nbsp;&nbsp;click on the sound,B R,NULL,801
1426001270,bf215827e8d093e97d95aa6d9404c268,Trial,45,0,t_bd_r_17,NULL,NULL,D R,NULL,1300
1426001270,bf215827e8d093e97d95aa6d9404c268,Trial,38,0,t_bd_r_1,NULL,NULL,B R,NULL,1165
1426001270,bf215827e8d093e97d95aa6d9404c268,Trial,36,0,t_bd_l_14,NULL,NULL,D L,NULL,1219
1426001270,bf215827e8d093e97d95aa6d9404c268,Trial,31,0,t_bd_l_4,NULL,NULL,B L,NULL,1283
1426001270,bf215827e8d093e97d95aa6d9404c268,Trial,33,0,t_bd_l_7,NULL,NULL,B L,NULL,1136
1426001270,bf215827e8d093e97d95aa6d9404c268,Trial,37,0,t_bd_l_17,NULL,NULL,D L,NULL,1284
1426001270,bf215827e8d093e97d95aa6d9404c268,Trial,34,0,t_bd_l_8,NULL,NULL,B L,NULL,1606
1426001270,bf215827e8d093e97d95aa6d9404c268,Trial,35,0,t_bd_l_10,NULL,NULL,B L,NULL,1765
1426001270,bf215827e8d093e97d95aa6d9404c268,Trial,39,0,t_bd_r_4,NULL,NULL,B R,NULL,1104
1426001270,bf215827e8d093e97d95aa6d9404c268,Trial,30,0,t_bd_l_1,NULL,NULL,B L,NULL,1219
1426001270,bf215827e8d093e97d95aa6d9404c268,Trial,41,0,t_bd_r_7,NULL,NULL,B R,NULL,2092
1426001270,bf215827e8d093e97d95aa6d9404c268,Trial,43,0,t_bd_r_10,NULL,NULL,B R,NULL,1214
1426001270,bf215827e8d093e97d95aa6d9404c268,Trial,44,0,t_bd_r_14,NULL,NULL,D R,NULL,1093
1426001270,bf215827e8d093e97d95aa6d9404c268,Trial,32,0,t_bd_l_6,NULL,NULL,B L,NULL,2485
1426001270,bf215827e8d093e97d95aa6d9404c268,Trial,42,0,t_bd_r_8,NULL,NULL,B R,NULL,1037
1426001270,bf215827e8d093e97d95aa6d9404c268,Trial,40,0,t_bd_r_6,NULL,NULL,B R,NULL,1035
1426001270,bf215827e8d093e97d95aa6d9404c268,Trial,40,0,t_bd_r_6,NULL,NULL,B R,NULL,951
1426001270,bf215827e8d093e97d95aa6d9404c268,Trial,38,0,t_bd_r_1,NULL,NULL,B R,NULL,772
1426001270,bf215827e8d093e97d95aa6d9404c268,Trial,34,0,t_bd_l_8,NULL,NULL,B L,NULL,1167
1426001270,bf215827e8d093e97d95aa6d9404c268,Trial,33,0,t_bd_l_7,NULL,NULL,D L,NULL,1802
1426001270,bf215827e8d093e97d95aa6d9404c268,Trial,37,0,t_bd_l_17,NULL,NULL,D L,NULL,1017
1426001270,bf215827e8d093e97d95aa6d9404c268,Trial,43,0,t_bd_r_10,NULL,NULL,B R,NULL,1055
1426001270,bf215827e8d093e97d95aa6d9404c268,Trial,42,0,t_bd_r_8,NULL,NULL,B R,NULL,800
1426001270,bf215827e8d093e97d95aa6d9404c268,Trial,30,0,t_bd_l_1,NULL,NULL,B L,NULL,1133
1426001270,bf215827e8d093e97d95aa6d9404c268,Trial,36,0,t_bd_l_14,NULL,NULL,D L,NULL,1116
1426001270,bf215827e8d093e97d95aa6d9404c268,Trial,44,0,t_bd_r_14,NULL,NULL,D R,NULL,1334
1426001270,bf215827e8d093e97d95aa6d9404c268,Trial,32,0,t_bd_l_6,NULL,NULL,B L,NULL,1066
1426001270,bf215827e8d093e97d95aa6d9404c268,Trial,41,0,t_bd_r_7,NULL,NULL,B R,NULL,1404
1426001270,bf215827e8d093e97d95aa6d9404c268,Trial,39,0,t_bd_r_4,NULL,NULL,B R,NULL,753
1426001270,bf215827e8d093e97d95aa6d9404c268,Trial,31,0,t_bd_l_4,NULL,NULL,B L,NULL,1033
1426001270,bf215827e8d093e97d95aa6d9404c268,Trial,35,0,t_bd_l_10,NULL,NULL,B L,NULL,904
1426001270,bf215827e8d093e97d95aa6d9404c268,Trial,45,0,t_bd_r_17,NULL,NULL,D R,NULL,970
1426001270,bf215827e8d093e97d95aa6d9404c268,Trial,40,0,t_bd_r_6,NULL,NULL,B R,NULL,982
1426001270,bf215827e8d093e97d95aa6d9404c268,Trial,44,0,t_bd_r_14,NULL,NULL,D R,NULL,1131
1426001270,bf215827e8d093e97d95aa6d9404c268,Trial,38,0,t_bd_r_1,NULL,NULL,B R,NULL,935
1426001270,bf215827e8d093e97d95aa6d9404c268,Trial,39,0,t_bd_r_4,NULL,NULL,B R,NULL,836
1426001270,bf215827e8d093e97d95aa6d9404c268,Trial,36,0,t_bd_l_14,NULL,NULL,D L,NULL,1850
1426001270,bf215827e8d093e97d95aa6d9404c268,Trial,32,0,t_bd_l_6,NULL,NULL,B L,NULL,1067
1426001270,bf215827e8d093e97d95aa6d9404c268,Trial,41,0,t_bd_r_7,NULL,NULL,B R,NULL,1116
1426001270,bf215827e8d093e97d95aa6d9404c268,Trial,37,0,t_bd_l_17,NULL,NULL,D L,NULL,969
1426001270,bf215827e8d093e97d95aa6d9404c268,Trial,34,0,t_bd_l_8,NULL,NULL,B L,NULL,1001
1426001270,bf215827e8d093e97d95aa6d9404c268,Trial,33,0,t_bd_l_7,NULL,NULL,B L,NULL,819
1426001270,bf215827e8d093e97d95aa6d9404c268,Trial,35,0,t_bd_l_10,NULL,NULL,B L,NULL,770
1426001270,bf215827e8d093e97d95aa6d9404c268,Trial,30,0,t_bd_l_1,NULL,NULL,B L,NULL,756
1426001270,bf215827e8d093e97d95aa6d9404c268,Trial,42,0,t_bd_r_8,NULL,NULL,B R,NULL,1044
1426001270,bf215827e8d093e97d95aa6d9404c268,Trial,43,0,t_bd_r_10,NULL,NULL,B R,NULL,1236
1426001270,bf215827e8d093e97d95aa6d9404c268,Trial,45,0,t_bd_r_17,NULL,NULL,D R,NULL,1004
1426001270,bf215827e8d093e97d95aa6d9404c268,Trial,31,0,t_bd_l_4,NULL,NULL,B L,NULL,1031
1426001270,bf215827e8d093e97d95aa6d9404c268,Trial,43,0,t_bd_r_10,NULL,NULL,B R,NULL,1435
1426001270,bf215827e8d093e97d95aa6d9404c268,Trial,36,0,t_bd_l_14,NULL,NULL,D L,NULL,1199
1426001270,bf215827e8d093e97d95aa6d9404c268,Trial,35,0,t_bd_l_10,NULL,NULL,B L,NULL,1028
1426001270,bf215827e8d093e97d95aa6d9404c268,Trial,40,0,t_bd_r_6,NULL,NULL,B R,NULL,915
1426001270,bf215827e8d093e97d95aa6d9404c268,Trial,39,0,t_bd_r_4,NULL,NULL,B R,NULL,917
1426001270,bf215827e8d093e97d95aa6d9404c268,Trial,32,0,t_bd_l_6,NULL,NULL,B L,NULL,1019
1426001270,bf215827e8d093e97d95aa6d9404c268,Trial,38,0,t_bd_r_1,NULL,NULL,B R,NULL,1093
1426001270,bf215827e8d093e97d95aa6d9404c268,Trial,41,0,t_bd_r_7,NULL,NULL,B R,NULL,842
1426001270,bf215827e8d093e97d95aa6d9404c268,Trial,45,0,t_bd_r_17,NULL,NULL,D R,NULL,885
1426001270,bf215827e8d093e97d95aa6d9404c268,Trial,42,0,t_bd_r_8,NULL,NULL,B R,NULL,1000
1426001270,bf215827e8d093e97d95aa6d9404c268,Trial,37,0,t_bd_l_17,NULL,NULL,D L,NULL,1099
1426001270,bf215827e8d093e97d95aa6d9404c268,Trial,44,0,t_bd_r_14,NULL,NULL,D R,NULL,1165
1426001270,bf215827e8d093e97d95aa6d9404c268,Trial,33,0,t_bd_l_7,NULL,NULL,B L,NULL,949
1426001270,bf215827e8d093e97d95aa6d9404c268,Trial,34,0,t_bd_l_8,NULL,NULL,B L,NULL,988
1426001270,bf215827e8d093e97d95aa6d9404c268,Trial,30,0,t_bd_l_1,NULL,NULL,B L,NULL,906
1426001270,bf215827e8d093e97d95aa6d9404c268,Trial,31,0,t_bd_l_4,NULL,NULL,B L,NULL,917
1426001270,bf215827e8d093e97d95aa6d9404c268,Trial,35,0,t_bd_l_10,NULL,NULL,B L,NULL,783
1426001270,bf215827e8d093e97d95aa6d9404c268,Trial,32,0,t_bd_l_6,NULL,NULL,B L,NULL,799
1426001270,bf215827e8d093e97d95aa6d9404c268,Trial,33,0,t_bd_l_7,NULL,NULL,B L,NULL,754
1426001270,bf215827e8d093e97d95aa6d9404c268,Trial,43,0,t_bd_r_10,NULL,NULL,B R,NULL,1100
1426001270,bf215827e8d093e97d95aa6d9404c268,Trial,36,0,t_bd_l_14,NULL,NULL,D L,NULL,1052
1426001270,bf215827e8d093e97d95aa6d9404c268,Trial,45,0,t_bd_r_17,NULL,NULL,D R,NULL,1266
1426001270,bf215827e8d093e97d95aa6d9404c268,Trial,31,0,t_bd_l_4,NULL,NULL,B L,NULL,932
1426001270,bf215827e8d093e97d95aa6d9404c268,Trial,39,0,t_bd_r_4,NULL,NULL,B R,NULL,935
1426001270,bf215827e8d093e97d95aa6d9404c268,Trial,38,0,t_bd_r_1,NULL,NULL,B R,NULL,883
1426001270,bf215827e8d093e97d95aa6d9404c268,Trial,44,0,t_bd_r_14,NULL,NULL,D R,NULL,901
1426001270,bf215827e8d093e97d95aa6d9404c268,Trial,40,0,t_bd_r_6,NULL,NULL,B R,NULL,1131
1426001270,bf215827e8d093e97d95aa6d9404c268,Trial,30,0,t_bd_l_1,NULL,NULL,B L,NULL,1011
1426001270,bf215827e8d093e97d95aa6d9404c268,Trial,37,0,t_bd_l_17,NULL,NULL,D L,NULL,1137
1426001270,bf215827e8d093e97d95aa6d9404c268,Trial,41,0,t_bd_r_7,NULL,NULL,B R,NULL,965
1426001270,bf215827e8d093e97d95aa6d9404c268,Trial,42,0,t_bd_r_8,NULL,NULL,B R,NULL,704
1426001270,bf215827e8d093e97d95aa6d9404c268,Trial,34,0,t_bd_l_8,NULL,NULL,B L,NULL,1246
1426001270,bf215827e8d093e97d95aa6d9404c268,Trial,34,0,t_bd_l_8,NULL,NULL,B L,NULL,935
1426001270,bf215827e8d093e97d95aa6d9404c268,Trial,38,0,t_bd_r_1,NULL,NULL,B R,NULL,1165
1426001270,bf215827e8d093e97d95aa6d9404c268,Trial,35,0,t_bd_l_10,NULL,NULL,B L,NULL,967
1426001270,bf215827e8d093e97d95aa6d9404c268,Trial,43,0,t_bd_r_10,NULL,NULL,B R,NULL,895
1426001270,bf215827e8d093e97d95aa6d9404c268,Trial,39,0,t_bd_r_4,NULL,NULL,B R,NULL,1002
1426001270,bf215827e8d093e97d95aa6d9404c268,Trial,42,0,t_bd_r_8,NULL,NULL,B R,NULL,968
1426001270,bf215827e8d093e97d95aa6d9404c268,Trial,31,0,t_bd_l_4,NULL,NULL,B L,NULL,871
1426001270,bf215827e8d093e97d95aa6d9404c268,Trial,37,0,t_bd_l_17,NULL,NULL,D L,NULL,829
1426001270,bf215827e8d093e97d95aa6d9404c268,Trial,33,0,t_bd_l_7,NULL,NULL,B L,NULL,903
1426001270,bf215827e8d093e97d95aa6d9404c268,Trial,36,0,t_bd_l_14,NULL,NULL,D L,NULL,910
1426001270,bf215827e8d093e97d95aa6d9404c268,Trial,32,0,t_bd_l_6,NULL,NULL,B L,NULL,883
1426001270,bf215827e8d093e97d95aa6d9404c268,Trial,30,0,t_bd_l_1,NULL,NULL,B L,NULL,829
1426001270,bf215827e8d093e97d95aa6d9404c268,Trial,44,0,t_bd_r_14,NULL,NULL,D R,NULL,984
1426001270,bf215827e8d093e97d95aa6d9404c268,Trial,41,0,t_bd_r_7,NULL,NULL,B R,NULL,1009
1426001270,bf215827e8d093e97d95aa6d9404c268,Trial,45,0,t_bd_r_17,NULL,NULL,D R,NULL,983
1426001270,bf215827e8d093e97d95aa6d9404c268,Trial,40,0,t_bd_r_6,NULL,NULL,B R,NULL,1578
1426001270,bf215827e8d093e97d95aa6d9404c268,Trial,41,0,t_bd_r_7,NULL,NULL,B R,NULL,795
1426001270,bf215827e8d093e97d95aa6d9404c268,Trial,35,0,t_bd_l_10,NULL,NULL,B L,NULL,1170
1426001270,bf215827e8d093e97d95aa6d9404c268,Trial,40,0,t_bd_r_6,NULL,NULL,B R,NULL,1353
1426001270,bf215827e8d093e97d95aa6d9404c268,Trial,37,0,t_bd_l_17,NULL,NULL,D L,NULL,983
1426001270,bf215827e8d093e97d95aa6d9404c268,Trial,32,0,t_bd_l_6,NULL,NULL,B L,NULL,905
1426001270,bf215827e8d093e97d95aa6d9404c268,Trial,39,0,t_bd_r_4,NULL,NULL,B R,NULL,993
1426001270,bf215827e8d093e97d95aa6d9404c268,Trial,34,0,t_bd_l_8,NULL,NULL,B L,NULL,1014
1426001270,bf215827e8d093e97d95aa6d9404c268,Trial,33,0,t_bd_l_7,NULL,NULL,B L,NULL,781
1426001270,bf215827e8d093e97d95aa6d9404c268,Trial,45,0,t_bd_r_17,NULL,NULL,D R,NULL,1050
1426001270,bf215827e8d093e97d95aa6d9404c268,Trial,38,0,t_bd_r_1,NULL,NULL,B R,NULL,1186
1426001270,bf215827e8d093e97d95aa6d9404c268,Trial,42,0,t_bd_r_8,NULL,NULL,B R,NULL,853
1426001270,bf215827e8d093e97d95aa6d9404c268,Trial,31,0,t_bd_l_4,NULL,NULL,B L,NULL,907
1426001270,bf215827e8d093e97d95aa6d9404c268,Trial,30,0,t_bd_l_1,NULL,NULL,B L,NULL,884
1426001270,bf215827e8d093e97d95aa6d9404c268,Trial,36,0,t_bd_l_14,NULL,NULL,D L,NULL,849
1426001270,bf215827e8d093e97d95aa6d9404c268,Trial,44,0,t_bd_r_14,NULL,NULL,D R,NULL,1091
1426001270,bf215827e8d093e97d95aa6d9404c268,Trial,43,0,t_bd_r_10,NULL,NULL,B R,NULL,866
1426001270,bf215827e8d093e97d95aa6d9404c268,Trial,39,0,t_bd_r_4,NULL,NULL,B R,NULL,814
1426001270,bf215827e8d093e97d95aa6d9404c268,Trial,43,0,t_bd_r_10,NULL,NULL,B R,NULL,897
1426001270,bf215827e8d093e97d95aa6d9404c268,Trial,33,0,t_bd_l_7,NULL,NULL,B L,NULL,1001
1426001270,bf215827e8d093e97d95aa6d9404c268,Trial,31,0,t_bd_l_4,NULL,NULL,B L,NULL,868
1426001270,bf215827e8d093e97d95aa6d9404c268,Trial,35,0,t_bd_l_10,NULL,NULL,D L,NULL,1376
1426001270,bf215827e8d093e97d95aa6d9404c268,Trial,45,0,t_bd_r_17,NULL,NULL,D R,NULL,1367
1426001270,bf215827e8d093e97d95aa6d9404c268,Trial,41,0,t_bd_r_7,NULL,NULL,B R,NULL,1030
1426001270,bf215827e8d093e97d95aa6d9404c268,Trial,36,0,t_bd_l_14,NULL,NULL,D L,NULL,867
1426001270,bf215827e8d093e97d95aa6d9404c268,Trial,37,0,t_bd_l_17,NULL,NULL,D L,NULL,816
1426001270,bf215827e8d093e97d95aa6d9404c268,Trial,30,0,t_bd_l_1,NULL,NULL,B L,NULL,926
1426001270,bf215827e8d093e97d95aa6d9404c268,Trial,34,0,t_bd_l_8,NULL,NULL,B L,NULL,1007
1426001270,bf215827e8d093e97d95aa6d9404c268,Trial,40,0,t_bd_r_6,NULL,NULL,B R,NULL,1285
1426001270,bf215827e8d093e97d95aa6d9404c268,Trial,44,0,t_bd_r_14,NULL,NULL,D R,NULL,1097
1426001270,bf215827e8d093e97d95aa6d9404c268,Trial,32,0,t_bd_l_6,NULL,NULL,B L,NULL,898
1426001270,bf215827e8d093e97d95aa6d9404c268,Trial,42,0,t_bd_r_8,NULL,NULL,B R,NULL,942
1426001270,bf215827e8d093e97d95aa6d9404c268,Trial,38,0,t_bd_r_1,NULL,NULL,B R,NULL,755
1426001270,bf215827e8d093e97d95aa6d9404c268,Trial,37,0,t_bd_l_17,NULL,NULL,D L,NULL,878
1426001270,bf215827e8d093e97d95aa6d9404c268,Trial,34,0,t_bd_l_8,NULL,NULL,B L,NULL,870
1426001270,bf215827e8d093e97d95aa6d9404c268,Trial,35,0,t_bd_l_10,NULL,NULL,B L,NULL,883
1426001270,bf215827e8d093e97d95aa6d9404c268,Trial,43,0,t_bd_r_10,NULL,NULL,B R,NULL,886
1426001270,bf215827e8d093e97d95aa6d9404c268,Trial,32,0,t_bd_l_6,NULL,NULL,B L,NULL,997
1426001270,bf215827e8d093e97d95aa6d9404c268,Trial,36,0,t_bd_l_14,NULL,NULL,D L,NULL,1047
1426001270,bf215827e8d093e97d95aa6d9404c268,Trial,42,0,t_bd_r_8,NULL,NULL,B R,NULL,848
1426001270,bf215827e8d093e97d95aa6d9404c268,Trial,30,0,t_bd_l_1,NULL,NULL,B L,NULL,885
1426001270,bf215827e8d093e97d95aa6d9404c268,Trial,31,0,t_bd_l_4,NULL,NULL,B L,NULL,855
1426001270,bf215827e8d093e97d95aa6d9404c268,Trial,40,0,t_bd_r_6,NULL,NULL,B R,NULL,1317
1426001270,bf215827e8d093e97d95aa6d9404c268,Trial,33,0,t_bd_l_7,NULL,NULL,B L,NULL,978
1426001270,bf215827e8d093e97d95aa6d9404c268,Trial,44,0,t_bd_r_14,NULL,NULL,D R,NULL,882
1426001270,bf215827e8d093e97d95aa6d9404c268,Trial,45,0,t_bd_r_17,NULL,NULL,D R,NULL,1030
1426001270,bf215827e8d093e97d95aa6d9404c268,Trial,38,0,t_bd_r_1,NULL,NULL,B R,NULL,1101
1426001270,bf215827e8d093e97d95aa6d9404c268,Trial,39,0,t_bd_r_4,NULL,NULL,B R,NULL,1015
1426001270,bf215827e8d093e97d95aa6d9404c268,Trial,41,0,t_bd_r_7,NULL,NULL,B R,NULL,1496
1426001270,bf215827e8d093e97d95aa6d9404c268,Trial,44,0,t_bd_r_14,NULL,NULL,D R,NULL,1519
1426001270,bf215827e8d093e97d95aa6d9404c268,Trial,39,0,t_bd_r_4,NULL,NULL,B R,NULL,1499
1426001270,bf215827e8d093e97d95aa6d9404c268,Trial,31,0,t_bd_l_4,NULL,NULL,B L,NULL,966
1426001270,bf215827e8d093e97d95aa6d9404c268,Trial,42,0,t_bd_r_8,NULL,NULL,B R,NULL,1081
1426001270,bf215827e8d093e97d95aa6d9404c268,Trial,40,0,t_bd_r_6,NULL,NULL,B R,NULL,901
1426001270,bf215827e8d093e97d95aa6d9404c268,Trial,41,0,t_bd_r_7,NULL,NULL,B R,NULL,923
1426001270,bf215827e8d093e97d95aa6d9404c268,Trial,37,0,t_bd_l_17,NULL,NULL,D L,NULL,1323
1426001270,bf215827e8d093e97d95aa6d9404c268,Trial,33,0,t_bd_l_7,NULL,NULL,B L,NULL,1198
1426001270,bf215827e8d093e97d95aa6d9404c268,Trial,34,0,t_bd_l_8,NULL,NULL,B L,NULL,2217
1426001270,bf215827e8d093e97d95aa6d9404c268,Trial,45,0,t_bd_r_17,NULL,NULL,D R,NULL,3325
1426001270,bf215827e8d093e97d95aa6d9404c268,Trial,36,0,t_bd_l_14,NULL,NULL,D L,NULL,1129
1426001270,bf215827e8d093e97d95aa6d9404c268,Trial,35,0,t_bd_l_10,NULL,NULL,B L,NULL,1215
1426001270,bf215827e8d093e97d95aa6d9404c268,Trial,43,0,t_bd_r_10,NULL,NULL,B R,NULL,1328
1426001270,bf215827e8d093e97d95aa6d9404c268,Trial,38,0,t_bd_r_1,NULL,NULL,B R,NULL,1460
1426001270,bf215827e8d093e97d95aa6d9404c268,Trial,30,0,t_bd_l_1,NULL,NULL,B L,NULL,954
1426001270,bf215827e8d093e97d95aa6d9404c268,Trial,32,0,t_bd_l_6,NULL,NULL,B L,NULL,915
# Columns below this comment are as follows:
# 1. Time results were received.
# 2. MD5 hash of participant's IP address.
# 3. Controller name.
# 4. Item number.
# 5. Element number.
# 6. Type.
# 7. Group.
# 8. Field name.
# 9. Field value.
1426001270,bf215827e8d093e97d95aa6d9404c268,Form,17,0,debrief,NULL,comments,
1426001270,bf215827e8d093e97d95aa6d9404c268,Form,17,0,debrief,NULL,_REACTION_TIME_,4957
1426001270,bf215827e8d093e97d95aa6d9404c268,Form,18,0,exit2,NULL,randomfield,ENaOTp2E
1426001270,bf215827e8d093e97d95aa6d9404c268,Form,18,0,exit2,NULL,worker_id,A2ISXWKXW3TDMR
1426001270,bf215827e8d093e97d95aa6d9404c268,Form,18,0,exit2,NULL,identifier,ENaOTp2E
1426001270,bf215827e8d093e97d95aa6d9404c268,Form,18,0,exit2,NULL,_REACTION_TIME_,26456
#
# Results on Tuesday March 10 2015 15:28:39 UTC.
# USER AGENT: Mozilla/5.0 (Macintosh; Intel Mac OS X 10_10_2) AppleWebKit/537.36 (KHTML, like Gecko) Chrome/41.0.2272.76 Safari/537.36
# Design number was non-random = 1
#
# Columns below this comment are as follows:
# 1. Time results were received.
# 2. MD5 hash of participant's IP address.
# 3. Controller name.
# 4. Item number.
# 5. Element number.
# 6. Type.
# 7. Group.
# 8. Field name.
# 9. Field value.
1426001319,5bf57fd82b10ae63018fce3769cb275f,Form,2,0,intro,NULL,consentanswer,dldrblbrD L,D R,B L,B R
1426001319,5bf57fd82b10ae63018fce3769cb275f,Form,2,0,intro,NULL,_REACTION_TIME_,11309
1426001319,5bf57fd82b10ae63018fce3769cb275f,Form,3,0,questionnaire,NULL,write_something,
1426001319,5bf57fd82b10ae63018fce3769cb275f,Form,3,0,questionnaire,NULL,NatLang,eng
1426001319,5bf57fd82b10ae63018fce3769cb275f,Form,3,0,questionnaire,NULL,disorder,disorderno
1426001319,5bf57fd82b10ae63018fce3769cb275f,Form,3,0,questionnaire,NULL,_REACTION_TIME_,9684
1426001319,5bf57fd82b10ae63018fce3769cb275f,Form,4,0,headphones,NULL,headphonebrand,apple
1426001319,5bf57fd82b10ae63018fce3769cb275f,Form,4,0,headphones,NULL,headphonemodel,apple earbuds
1426001319,5bf57fd82b10ae63018fce3769cb275f,Form,4,0,headphones,NULL,headphoneyesno,headphoneyes
1426001319,5bf57fd82b10ae63018fce3769cb275f,Form,4,0,headphones,NULL,_REACTION_TIME_,25825
# Columns below this comment are as follows:
# 1. Time results were received.
# 2. MD5 hash of participant's IP address.
# 3. Controller name.
# 4. Item number.
# 5. Element number.
# 6. Type.
# 7. Group.
# 8. Question (NULL if none).
# 9. Answer.
# 10. Whether or not answer was correct (NULL if N/A).
# 11. Time taken to answer.
1426001319,5bf57fd82b10ae63018fce3769cb275f,Trial,25,0,pnt_bd_r_17,NULL,&nbsp;&nbsp;&nbsp;&nbsp;click on the sound,B L,NULL,5062
1426001319,5bf57fd82b10ae63018fce3769cb275f,Trial,22,0,pnt_bd_l_1,NULL,&nbsp;&nbsp;&nbsp;&nbsp;click on the sound,B L,NULL,3199
1426001319,5bf57fd82b10ae63018fce3769cb275f,Trial,23,0,pnt_bd_l_17,NULL,&nbsp;&nbsp;&nbsp;&nbsp;click on the sound,D L,NULL,11113
1426001319,5bf57fd82b10ae63018fce3769cb275f,Trial,24,0,pnt_bd_r_1,NULL,&nbsp;&nbsp;&nbsp;&nbsp;click on the sound,B R,NULL,2185
1426001319,5bf57fd82b10ae63018fce3769cb275f,Trial,26,0,pto_bd_l_1,NULL,&nbsp;&nbsp;&nbsp;&nbsp;click on the sound,B L,NULL,1814
1426001319,5bf57fd82b10ae63018fce3769cb275f,Trial,29,0,pto_bd_r_17,NULL,&nbsp;&nbsp;&nbsp;&nbsp;click on the sound,D R,NULL,1677
1426001319,5bf57fd82b10ae63018fce3769cb275f,Trial,27,0,pto_bd_l_17,NULL,&nbsp;&nbsp;&nbsp;&nbsp;click on the sound,D L,NULL,1602
1426001319,5bf57fd82b10ae63018fce3769cb275f,Trial,28,0,pto_bd_r_1,NULL,&nbsp;&nbsp;&nbsp;&nbsp;click on the sound,B R,NULL,1487
1426001319,5bf57fd82b10ae63018fce3769cb275f,Trial,44,0,t_bd_r_14,NULL,NULL,D R,NULL,1941
1426001319,5bf57fd82b10ae63018fce3769cb275f,Trial,39,0,t_bd_r_4,NULL,NULL,B R,NULL,1565
1426001319,5bf57fd82b10ae63018fce3769cb275f,Trial,43,0,t_bd_r_10,NULL,NULL,B R,NULL,1922
1426001319,5bf57fd82b10ae63018fce3769cb275f,Trial,31,0,t_bd_l_4,NULL,NULL,B L,NULL,2332
1426001319,5bf57fd82b10ae63018fce3769cb275f,Trial,36,0,t_bd_l_14,NULL,NULL,D L,NULL,1566
1426001319,5bf57fd82b10ae63018fce3769cb275f,Trial,35,0,t_bd_l_10,NULL,NULL,D L,NULL,1795
1426001319,5bf57fd82b10ae63018fce3769cb275f,Trial,38,0,t_bd_r_1,NULL,NULL,B R,NULL,1612
1426001319,5bf57fd82b10ae63018fce3769cb275f,Trial,37,0,t_bd_l_17,NULL,NULL,D L,NULL,1505
1426001319,5bf57fd82b10ae63018fce3769cb275f,Trial,30,0,t_bd_l_1,NULL,NULL,B L,NULL,1312
1426001319,5bf57fd82b10ae63018fce3769cb275f,Trial,41,0,t_bd_r_7,NULL,NULL,B R,NULL,2308
1426001319,5bf57fd82b10ae63018fce3769cb275f,Trial,40,0,t_bd_r_6,NULL,NULL,B R,NULL,1426
1426001319,5bf57fd82b10ae63018fce3769cb275f,Trial,45,0,t_bd_r_17,NULL,NULL,D R,NULL,1326
1426001319,5bf57fd82b10ae63018fce3769cb275f,Trial,32,0,t_bd_l_6,NULL,NULL,B L,NULL,1874
1426001319,5bf57fd82b10ae63018fce3769cb275f,Trial,34,0,t_bd_l_8,NULL,NULL,B L,NULL,1576
1426001319,5bf57fd82b10ae63018fce3769cb275f,Trial,33,0,t_bd_l_7,NULL,NULL,B L,NULL,1414
1426001319,5bf57fd82b10ae63018fce3769cb275f,Trial,42,0,t_bd_r_8,NULL,NULL,B R,NULL,1614
1426001319,5bf57fd82b10ae63018fce3769cb275f,Trial,43,0,t_bd_r_10,NULL,NULL,B R,NULL,1202
1426001319,5bf57fd82b10ae63018fce3769cb275f,Trial,45,0,t_bd_r_17,NULL,NULL,D R,NULL,1325
1426001319,5bf57fd82b10ae63018fce3769cb275f,Trial,39,0,t_bd_r_4,NULL,NULL,B R,NULL,1290
1426001319,5bf57fd82b10ae63018fce3769cb275f,Trial,38,0,t_bd_r_1,NULL,NULL,B R,NULL,977
1426001319,5bf57fd82b10ae63018fce3769cb275f,Trial,42,0,t_bd_r_8,NULL,NULL,B R,NULL,934
1426001319,5bf57fd82b10ae63018fce3769cb275f,Trial,40,0,t_bd_r_6,NULL,NULL,B R,NULL,1028
1426001319,5bf57fd82b10ae63018fce3769cb275f,Trial,37,0,t_bd_l_17,NULL,NULL,D L,NULL,1680
1426001319,5bf57fd82b10ae63018fce3769cb275f,Trial,30,0,t_bd_l_1,NULL,NULL,B L,NULL,1605
1426001319,5bf57fd82b10ae63018fce3769cb275f,Trial,33,0,t_bd_l_7,NULL,NULL,B L,NULL,1067
1426001319,5bf57fd82b10ae63018fce3769cb275f,Trial,35,0,t_bd_l_10,NULL,NULL,D L,NULL,1548
1426001319,5bf57fd82b10ae63018fce3769cb275f,Trial,44,0,t_bd_r_14,NULL,NULL,D R,NULL,1814
1426001319,5bf57fd82b10ae63018fce3769cb275f,Trial,36,0,t_bd_l_14,NULL,NULL,D L,NULL,1734
1426001319,5bf57fd82b10ae63018fce3769cb275f,Trial,32,0,t_bd_l_6,NULL,NULL,B L,NULL,1611
1426001319,5bf57fd82b10ae63018fce3769cb275f,Trial,34,0,t_bd_l_8,NULL,NULL,B L,NULL,1193
1426001319,5bf57fd82b10ae63018fce3769cb275f,Trial,31,0,t_bd_l_4,NULL,NULL,B L,NULL,903
1426001319,5bf57fd82b10ae63018fce3769cb275f,Trial,41,0,t_bd_r_7,NULL,NULL,B R,NULL,1492
1426001319,5bf57fd82b10ae63018fce3769cb275f,Trial,40,0,t_bd_r_6,NULL,NULL,B R,NULL,1024
1426001319,5bf57fd82b10ae63018fce3769cb275f,Trial,33,0,t_bd_l_7,NULL,NULL,B L,NULL,1623
1426001319,5bf57fd82b10ae63018fce3769cb275f,Trial,43,0,t_bd_r_10,NULL,NULL,B R,NULL,1430
1426001319,5bf57fd82b10ae63018fce3769cb275f,Trial,41,0,t_bd_r_7,NULL,NULL,B R,NULL,975
1426001319,5bf57fd82b10ae63018fce3769cb275f,Trial,37,0,t_bd_l_17,NULL,NULL,D L,NULL,1679
1426001319,5bf57fd82b10ae63018fce3769cb275f,Trial,32,0,t_bd_l_6,NULL,NULL,B L,NULL,1613
1426001319,5bf57fd82b10ae63018fce3769cb275f,Trial,30,0,t_bd_l_1,NULL,NULL,B L,NULL,975
1426001319,5bf57fd82b10ae63018fce3769cb275f,Trial,45,0,t_bd_r_17,NULL,NULL,D R,NULL,1567
1426001319,5bf57fd82b10ae63018fce3769cb275f,Trial,44,0,t_bd_r_14,NULL,NULL,D R,NULL,1957
1426001319,5bf57fd82b10ae63018fce3769cb275f,Trial,34,0,t_bd_l_8,NULL,NULL,B L,NULL,1649
1426001319,5bf57fd82b10ae63018fce3769cb275f,Trial,36,0,t_bd_l_14,NULL,NULL,D L,NULL,1388
1426001319,5bf57fd82b10ae63018fce3769cb275f,Trial,31,0,t_bd_l_4,NULL,NULL,B L,NULL,1487
1426001319,5bf57fd82b10ae63018fce3769cb275f,Trial,35,0,t_bd_l_10,NULL,NULL,B L,NULL,1171
1426001319,5bf57fd82b10ae63018fce3769cb275f,Trial,42,0,t_bd_r_8,NULL,NULL,B R,NULL,1953
1426001319,5bf57fd82b10ae63018fce3769cb275f,Trial,39,0,t_bd_r_4,NULL,NULL,B R,NULL,1561
1426001319,5bf57fd82b10ae63018fce3769cb275f,Trial,38,0,t_bd_r_1,NULL,NULL,B R,NULL,1005
1426001319,5bf57fd82b10ae63018fce3769cb275f,Trial,33,0,t_bd_l_7,NULL,NULL,B L,NULL,1410
1426001319,5bf57fd82b10ae63018fce3769cb275f,Trial,34,0,t_bd_l_8,NULL,NULL,B L,NULL,1531
1426001319,5bf57fd82b10ae63018fce3769cb275f,Trial,42,0,t_bd_r_8,NULL,NULL,B R,NULL,1421
1426001319,5bf57fd82b10ae63018fce3769cb275f,Trial,38,0,t_bd_r_1,NULL,NULL,B R,NULL,1057
1426001319,5bf57fd82b10ae63018fce3769cb275f,Trial,37,0,t_bd_l_17,NULL,NULL,D L,NULL,1430
1426001319,5bf57fd82b10ae63018fce3769cb275f,Trial,39,0,t_bd_r_4,NULL,NULL,B R,NULL,1422
1426001319,5bf57fd82b10ae63018fce3769cb275f,Trial,40,0,t_bd_r_6,NULL,NULL,B R,NULL,1128
1426001319,5bf57fd82b10ae63018fce3769cb275f,Trial,43,0,t_bd_r_10,NULL,NULL,B R,NULL,942
1426001319,5bf57fd82b10ae63018fce3769cb275f,Trial,32,0,t_bd_l_6,NULL,NULL,B L,NULL,1474
1426001319,5bf57fd82b10ae63018fce3769cb275f,Trial,35,0,t_bd_l_10,NULL,NULL,D L,NULL,1838
1426001319,5bf57fd82b10ae63018fce3769cb275f,Trial,45,0,t_bd_r_17,NULL,NULL,D R,NULL,1658
1426001319,5bf57fd82b10ae63018fce3769cb275f,Trial,31,0,t_bd_l_4,NULL,NULL,B L,NULL,1441
1426001319,5bf57fd82b10ae63018fce3769cb275f,Trial,41,0,t_bd_r_7,NULL,NULL,B R,NULL,1774
1426001319,5bf57fd82b10ae63018fce3769cb275f,Trial,30,0,t_bd_l_1,NULL,NULL,B L,NULL,1386
1426001319,5bf57fd82b10ae63018fce3769cb275f,Trial,44,0,t_bd_r_14,NULL,NULL,D R,NULL,1391
1426001319,5bf57fd82b10ae63018fce3769cb275f,Trial,36,0,t_bd_l_14,NULL,NULL,D L,NULL,1486
